File: DS_cube_100_5_Strength.csv
Idx_Sample,SiO2,Al2O3,Fe2O3,CaO,MgO,Na2O,K2O,SO3,TiO2,P2O5,SrO,Mn2O3,MnO,LOI,Cement (kg/m3),FA (kg/m3),GGBFS (kg/m3),SF (kg/m3),Kaolin (kg/m3),Other SCM (kg/m3),Coarse aggregate (kg/m3),Fine aggregate (kg/m3),Na2SiO3,NaOH,NaOH specific gravity,Na2SiO3 specific gravity,Total solution,Na2O (l),Sio2 (l),H2O,Na2O (Dry),Sio2 (Dry),Water,Total NaOH,Concentration (M) NaOH,Water,NaOH (Dry),Additional water,Superplasticizer,water -eff,Initial curing time (day),Initial curing temp (C),Final curing temp (C),Mixture CO2 (Na2SiO3 as solution),28-d Cubic compressive strength (MPa)
192,51.3,30.1,4.57,8.73,0,0,1.56,1.4,0.698,1.6,0,0,0,0,0,400,0,0,0,0,950,850,143,57,0,0,143,0.1426,0.2943,0.56,20.39,42.08,80.5233,57,12,29.64,27.36,48,28,174.9633,1,70,24,195.6294,48.53
194,51.3,30.1,4.57,8.73,0,0,1.56,1.4,0.698,1.6,0,0,0,0,0,400,0,0,0,0,950,850,143,57,0,0,143,0.1426,0.2943,0.56,20.39,42.08,80.5233,57,12,29.64,27.36,48,28,174.9633,3,70,24,253.3794,53.92
196,51.3,30.1,4.57,8.73,0,0,1.56,1.4,0.698,1.6,0,0,0,0,0,400,0,0,0,0,950,850,143,57,0,0,143,0.1426,0.2943,0.56,20.39,42.08,80.5233,57,12,29.64,27.36,48,28,174.9633,2,60,24,211.671,47.54
198,51.3,30.1,4.57,8.73,0,0,1.56,1.4,0.698,1.6,0,0,0,0,0,400,0,0,0,0,950,850,143,57,0,0,143,0.1426,0.2943,0.56,20.39,42.08,80.5233,57,12,29.64,27.36,48,28,174.9633,2,80,24,237.338,50.77
399,52.75,19.97,2.285,20.565,1.025,0.47,0.885,0.2,0.545,0,0,0,0,1.43,0,194,194,0,0,0,1241,523,49.6,24.8,0,1.54,49.6,0.1434,0.3223,0.53,7.11,15.99,26.50128,24.8,3,21.824,2.976,0,0,48.32528,0,25,24,42.88624,52
401,62.1,27.44,4.57,0.83,0.55,0.04,1.17,0.4,1.09,0,0,0.04,0,0.76,0,388,0,0,0,0,1241,523,49.6,24.8,0,1.54,49.6,0.1434,0.3223,0.53,7.11,15.99,26.50128,24.8,10,14.88,9.92,0,0,41.38128,1,60,24,69.3303,20
403,52.75,19.97,2.285,20.565,1.025,0.47,0.885,0.2,0.545,0,0,0.02,0,1.43,0,194,194,0,0,0,1241,523,49.6,24.8,0,1.54,49.6,0.1434,0.3223,0.53,7.11,15.99,26.50128,24.8,3,21.824,2.976,0,0,48.32528,0,25,24,42.88624,50
405,57.425,23.705,3.4275,10.6975,0.7875,0.255,1.0275,0.3,0.8175,0,0,0.03,0,1.095,0,291,97,0,0,0,1241,523,49.6,24.8,0,1.54,49.6,0.1434,0.3223,0.53,7.11,15.99,26.50128,24.8,3,21.824,2.976,0,0,48.32528,0,25,24,38.23024,42
417,53.245,28.636,4.425,8.3555,0,0,1.683,1.4,0.665,1.52,0,0,0,0,0,400,0,20,0,0,950,850,143,58,0,0,143,0.1436,0.2943,0.56,20.53,42.08,80.3803,58,10,34.8,23.2,48,24,177.5803,2,70,24,209.298,53.38
419,57.135,25.708,4.135,7.6065,0,0,1.929,1.4,0.595,1.36,0,0,0,0,0,400,0,60,0,0,950,850,143,60,0,0,143,0.1436,0.2943,0.56,20.53,42.08,80.3803,60,14,26.4,33.6,48,24,169.1803,2,70,24,229.774,53.96
499,45.172,24.898,2.432,17.516,5.43,0.184,0.718,0,1.2,0.2468,0,0,0,0.822,0,279,186,0,0,0,1176,504,170,85,1.13,1.4,170,0.0893,0.298,0.61,15.18,50.66,104.159,85,6,64.6,20.4,0,0,168.759,0,25,24,119.118,46.8307
501,54.1,31.83,3.22,4.86,1.23,0.24,0.77,0,1.66,0.41,0,0,0,0.65,0,465,0,0,0,0,1176,504,182,73,1.13,1.4,182,0.0893,0.298,0.61,16.25,54.24,111.5114,73,6,55.48,17.52,0,0,166.9914,0,25,24,108.9948,31.2766
503,45.172,24.898,2.432,17.516,5.43,0.184,0.718,0,1.2,0.2468,0,0,0,0.822,0,372,248,0,0,0,1008,432,243,97,1.13,1.4,243,0.0893,0.298,0.61,21.7,72.41,148.8861,97,6,73.72,23.28,0,0,222.6061,0,25,24,153.3572,31.0011
505,45.172,24.898,2.432,17.516,5.43,0.184,0.718,0,1.2,0.2468,0,0,0,0.822,0,279,186,0,0,0,1008,672,182,73,1.13,1.4,182,0.0893,0.298,0.61,16.25,54.24,111.5114,73,6,55.48,17.52,0,0,166.9914,0,25,24,117.9228,42.6055
507,45.172,24.898,2.432,17.516,5.43,0.184,0.718,0,1.2,0.2468,0,0,0,0.822,0,279,186,0,0,0,840,840,182,73,1.13,1.4,182,0.0893,0.298,0.61,16.25,54.24,111.5114,73,6,55.48,17.52,0,0,166.9914,0,25,24,117.9228,35.6808
509,45.172,24.898,2.432,17.516,5.43,0.184,0.718,0,1.2,0.2468,0,0,0,0.822,0,279,186,0,0,0,1176,504,182,73,0,1.4,182,0.0893,0.298,0.61,16.25,54.24,111.5114,73,3,64.24,8.76,0,0,175.7514,0,25,24,101.1474,30.1053
511,45.2472,24.9564,2.43864,17.4094,5.39462,0.184472,0.718438,0,1.20387,0.248175,0,0,0,0.820551,0,394,259,0,0,0,858,520,108,92,1.17,1.54,108,0.1492,0.298,0.55,16.11,32.18,59.7024,92,8,62.56,29.44,90,0,212.2624,0,25,24,116.916,66.259
513,45.2472,24.9564,2.43864,17.4094,5.39462,0.184472,0.718438,0,1.20387,0.248175,0,0,0,0.820551,0,394,259,0,0,0,858,520,81,69,1.17,1.54,81,0.1492,0.298,0.55,12.09,24.14,44.7768,69,8,46.92,22.08,125,0,216.6968,0,25,24,93.1016,53.2493
515,48.8814,27.7781,2.7594,12.2577,3.68498,0.207267,0.739605,0,1.39112,0.314607,0,0,0,0.750537,0,485,148,0,0,0,858,520,98,82,1.17,1.54,98,0.1492,0.298,0.55,14.62,29.2,54.1744,82,8,55.76,26.24,104,0,213.9344,0,25,24,101.78,34.2926
517,49.636,28.364,2.826,11.188,3.33,0.212,0.744,0,1.43,0.3284,0,0,0,0.736,0,504,126,0,0,0,858,520,108,92,1.17,1.54,108,0.1492,0.298,0.55,16.11,32.18,59.7024,92,8,62.56,29.44,90,0,212.2624,0,25,24,110.44,44.1007
519,45.2472,24.9564,2.43864,17.4094,5.39462,0.184472,0.718438,0,1.20387,0.248175,0,0,0,0.820551,0,394,259,0,0,0,858,520,81,69,1.17,1.54,81,0.1492,0.298,0.55,12.09,24.14,44.7768,69,8,46.92,22.08,125,0,216.6968,0,25,24,93.1016,6.0551
521,45.2472,24.9564,2.43864,17.4094,5.39462,0.184472,0.718438,0,1.20387,0.248175,0,0,0,0.820551,0,394,259,0,0,0,776,597,108,92,1.17,1.54,108,0.1492,0.298,0.55,16.11,32.18,59.7024,92,8,62.56,29.44,90,0,212.2624,0,25,24,116.892,66.9997
523,45.2472,24.9564,2.43864,17.4094,5.39462,0.184472,0.718438,0,1.20387,0.248175,0,0,0,0.820551,0,394,259,0,0,0,941,442,98,82,1.17,1.54,98,0.1492,0.298,0.55,14.62,29.2,54.1744,82,8,55.76,26.24,104,0,213.9344,0,25,24,107.212,52.6417
525,45.2472,24.9564,2.43864,17.4094,5.39462,0.184472,0.718438,0,1.20387,0.248175,0,0,0,0.820551,0,394,259,0,0,0,609,754,98,82,1.17,1.54,98,0.1492,0.298,0.55,14.62,29.2,54.1744,82,8,55.76,26.24,104,0,213.9344,0,25,24,107.116,52.8557
527,45.2472,24.9564,2.43864,17.4094,5.39462,0.184472,0.718438,0,1.20387,0.248175,0,0,0,0.820551,0,394,259,0,0,0,776,597,81,69,1.17,1.54,81,0.1492,0.298,0.55,12.09,24.14,44.7768,69,8,46.92,22.08,125,0,216.6968,0,25,24,93.0776,53.7883
529,45.2534,24.9612,2.43919,17.4006,5.39169,0.184511,0.718474,0,1.2042,0.248289,0,0,0,0.820431,0,364,239,0,0,0,858,572,98,82,1.17,1.54,98,0.1492,0.298,0.55,14.62,29.2,54.1744,82,8,55.76,26.24,104,0,213.9344,0,25,24,106.2776,46.5007
531,48.8729,27.7715,2.75865,12.2697,3.68897,0.207214,0.739556,0,1.39068,0.314451,0,0,0,0.750701,0,448,137,0,0,0,858,572,98,82,1.17,1.54,98,0.1492,0.298,0.55,14.62,29.2,54.1744,82,8,55.76,26.24,104,0,213.9344,0,25,24,101.3096,37.5029
533,45.2472,24.9564,2.43864,17.4094,5.39462,0.184472,0.718438,0,1.20387,0.248175,0,0,0,0.820551,0,394,259,0,0,0,858,520,54,92,1.17,1.54,54,0.1492,0.298,0.55,8.06,16.09,29.8512,92,8,62.56,29.44,125,0,217.4112,0,25,24,97.476,40.2703
535,45.2472,24.9564,2.43864,17.4094,5.39462,0.184472,0.718438,0,1.20387,0.248175,0,0,0,0.820551,0,394,259,0,0,0,858,520,110,47,1.17,1.54,110,0.1492,0.298,0.55,16.41,32.78,60.808,47,8,31.96,15.04,125,0,217.768,0,25,24,90.06,46.7568
537,45.2472,24.9564,2.43864,17.4094,5.39462,0.184472,0.718438,0,1.20387,0.248175,0,0,0,0.820551,0,394,259,0,0,0,858,520,81,75,1.17,1.54,81,0.1492,0.298,0.55,12.09,24.14,44.7768,75,8,51,24,125,0,220.7768,0,25,24,96.7784,66.4045
594,30.97,17.41,1.03,36.77,9.01,0.69,0.46,1.82,0,0,0,0,0,0,0,0,356.36,0,0,0,1284.29,467.12,80.18,80.18,0,0,80.18,0.09,0.28,0.63,7.22,22.45,50.5134,80.18,8,54.5224,25.6576,0,3.56,107.1718,0,24,24,111.629,41.291
596,30.97,17.41,1.03,36.77,9.01,0.69,0.46,1.82,0,0,0,0,0,0,0,0,356.36,0,0,0,1284.29,467.12,106.907,53.4533,0,0,106.907,0.09,0.28,0.63,9.62,29.93,67.3512,53.4533,8,36.3483,17.1051,0,3.56,105.835,0,24,24,104.873,58.1384
598,30.97,17.41,1.03,36.77,9.01,0.69,0.46,1.82,0,0,0,0,0,0,0,0,356.36,0,0,0,1284.29,467.12,96.216,64.144,0,0,96.216,0.09,0.28,0.63,8.66,26.94,60.61608,64.144,10,38.4864,25.6576,0,3.56,101.238,0,24,24,117.402,50.7692
600,30.97,17.41,1.03,36.77,9.01,0.69,0.46,1.82,0,0,0,0,0,0,0,0,356.36,0,0,0,1284.29,467.12,80.18,80.18,0,0,80.18,0.09,0.28,0.63,7.22,22.45,50.5134,80.18,12,41.6936,38.4864,0,3.56,94.343,0,24,24,136.197,45.8666
602,30.97,17.41,1.03,36.77,9.01,0.69,0.46,1.82,0,0,0,0,0,0,0,0,356.36,0,0,0,1284.29,467.12,106.907,53.4533,0,0,106.907,0.09,0.28,0.63,9.62,29.93,67.3512,53.4533,12,27.7957,25.6576,0,3.56,97.2829,0,24,24,121.251,70.9148
604,30.97,17.41,1.03,36.77,9.01,0.69,0.46,1.82,0,0,0,0,0,0,0,0,356.36,0,0,0,1284.29,467.12,96.216,64.144,0,0,96.216,0.09,0.28,0.63,8.66,26.94,60.61608,64.144,14,28.22336,35.92064,0,3.56,90.97544,0,24,24,137.056,61.3713
656,41.45,21.535,5.515,22.605,3.645,0.235,0.415,1.505,1.3,0.325,0,0.285,0,0.725,0,394.29,394.29,0,0,0,1294,554,112.65,45.6,0,0,112.65,0.137,0.294,0.57,15.43,33.12,64.09785,45.6,12,23.712,21.888,0,0,87.80985,0,25,24,113.42,58
658,41.45,21.535,5.515,22.605,3.645,0.235,0.415,1.505,1.3,0.325,0,0.285,0,0.725,0,394.29,394.29,0,0,0,1294,554,112.65,45.6,0,0,112.65,0.137,0.294,0.57,15.43,33.12,64.09785,45.6,12,23.712,21.888,0,0,87.80985,1,100,24,161.545,58.9
734,61.3,29.4,3.27,1.21,0.75,0.73,1.2,0.003,0.01,0,0,0,0,0.45,0,350,0,0,0,0,1167,777,88.39,88.39,0,1.53,88.39,0.137,0.294,0.57,12.11,25.99,50.29391,88.39,10,53.034,35.356,0,0,103.328,1,60,24,132.717,22.5
736,61.3,29.4,3.27,1.21,0.75,0.73,1.2,0.003,0.01,0,0,0,0,0.45,0,350,0,0,0,0,1167,777,133.18,44.39,0,1.53,44.39,0.137,0.294,0.57,6.08,13.05,25.25791,133.18,10,79.908,53.272,0,0,105.166,1,60,24,183.15,32.6
738,61.3,29.4,3.27,1.21,0.75,0.73,1.2,0.003,0.01,0,0,0,0,0.45,0,350,0,0,0,0,1167,777,118.09,59.22,0,1.53,59.22,0.137,0.294,0.57,8.11,17.41,33.69618,118.09,14,51.9596,66.1304,0,0,85.65578,1,60,24,202.342,35.2
740,61.3,29.4,3.27,1.21,0.75,0.73,1.2,0.003,0.01,0,0,0,0,0.45,0,350,0,0,0,0,1167,777,88.39,88.39,0,1.53,88.39,0.137,0.294,0.57,12.11,25.99,50.29391,88.39,16,31.8204,56.5696,0,0,82.11431,1,60,24,173.341,29.9
742,61.3,29.4,3.27,1.21,0.75,0.73,1.2,0.003,0.01,0,0,0,0,0.45,0,350,0,0,0,0,1167,777,133.18,44.39,0,1.53,44.39,0.137,0.294,0.57,6.08,13.05,25.25791,133.18,16,47.9448,85.2352,0,0,73.20271,1,60,24,244.36,36.8
744,61.3,29.4,3.27,1.21,0.75,0.73,1.2,0.003,0.01,0,0,0,0,0.45,0,450,0,0,0,0,1051,700,150.52,75.48,0,1.53,59.22,0.137,0.294,0.57,8.11,17.41,33.69618,118.09,10,70.854,47.236,0,0,104.55,1,60,24,177.307,38.3
746,61.3,29.4,3.27,1.21,0.75,0.73,1.2,0.003,0.01,0,0,0,0,0.45,0,450,0,0,0,0,1051,700,112.58,112.58,0,1.53,88.39,0.137,0.294,0.57,12.11,25.99,50.29391,88.39,14,38.8916,49.4984,0,0,89.18551,1,60,24,167.981,34.5
748,61.3,29.4,3.27,1.21,0.75,0.73,1.2,0.003,0.01,0,0,0,0,0.45,0,450,0,0,0,0,1051,700,169.83,56.61,0,1.53,44.39,0.137,0.294,0.57,6.08,13.05,25.25791,133.18,14,58.5992,74.5808,0,0,83.85711,1,60,24,236.624,42.5
750,61.3,29.4,3.27,1.21,0.75,0.73,1.2,0.003,0.01,0,0,0,0,0.45,0,450,0,0,0,0,1051,700,150.52,75.48,0,1.53,59.22,0.137,0.294,0.57,8.11,17.41,33.69618,118.09,16,42.5124,75.5776,0,0,76.20858,1,60,24,231.581,42.1
752,61.3,29.4,3.27,1.21,0.75,0.73,1.2,0.003,0.01,0,0,0,0,0.45,0,350,0,0,0,0,1167,777,118.09,59.22,0,1.53,59.22,0.137,0.294,0.57,8.11,17.41,33.69618,118.09,10,70.854,47.236,0,0,104.55,0.333333,60,24,151.187,17.3
754,61.3,29.4,3.27,1.21,0.75,0.73,1.2,0.003,0.01,0,0,0,0,0.45,0,350,0,0,0,0,1167,777,118.09,59.22,0,1.53,59.22,0.137,0.294,0.57,8.11,17.41,33.69618,118.09,16,42.5124,75.5776,0,0,76.20858,0.333333,60,24,205.461,24.8
756,61.3,29.4,3.27,1.21,0.75,0.73,1.2,0.003,0.01,0,0,0,0,0.45,0,450,0,0,0,0,1051,700,150.52,75.48,0,1.53,59.22,0.137,0.294,0.57,8.11,17.41,33.69618,118.09,14,51.9596,66.1304,0,0,85.65578,0.333333,60,24,198.518,28.5
758,30.97,17.41,1.03,36.77,9.01,0.69,0.46,1.82,0,0,0,0,0,0,0,0,400,0,0,0,1024,524,156.25,62.86,0,0,156.25,0.09,0.28,0.63,14.06,43.75,98.4375,62.86,10,37.716,25.144,0,0,136.1535,0,25,24,132.631,47.5325
760,30.97,17.41,1.03,36.77,9.01,0.69,0.46,1.82,0,0,0,0,0,0,0,0,400,0,0,0,1024,524,156.25,62.86,0,0,156.25,0.09,0.28,0.63,14.06,43.75,98.4375,62.86,14,27.6584,35.2016,0,0,126.0959,0,25,24,151.891,59.2208
762,33.073,20.269,0.987,33.102,8.112,0.631,0.417,1.638,0,0,0,0,0,0,0,0,360,0,40,0,1024,524,156.25,62.86,0,0,156.25,0.09,0.28,0.63,14.06,43.75,98.4375,62.86,12,32.6872,30.1728,0,0,131.1247,0,25,24,153.381,56.1336
764,35.176,23.128,0.944,29.434,7.214,0.572,0.374,1.456,0,0,0,0,0,0,0,0,320,0,80,0,1024,524,156.25,62.86,0,0,156.25,0.09,0.28,0.63,14.06,43.75,98.4375,62.86,10,37.716,25.144,0,0,136.1535,0,25,24,154.871,54.7001
766,35.176,23.128,0.944,29.434,7.214,0.572,0.374,1.456,0,0,0,0,0,0,0,0,320,0,80,0,1024,524,156.25,62.86,0,0,156.25,0.09,0.28,0.63,14.06,43.75,98.4375,62.86,14,27.6584,35.2016,0,0,126.0959,0,25,24,174.131,63.3753
768,37.279,25.987,0.901,25.766,6.316,0.513,0.331,1.274,0,0,0,0,0,0,0,0,280,0,120,0,1024,524,156.25,62.86,0,0,156.25,0.09,0.28,0.63,14.06,43.75,98.4375,62.86,12,32.6872,30.1728,0,0,131.1247,0,25,24,175.621,56.5645
806,48.105,22.12,1.792,17.74,3.895,0,0,1.025,0.25,0,0,0,0,1.195,0,204.5,204.5,0,0,0,1290,549,102,41,0,0,102,0.137,0.294,0.57,13.97,29.99,58.038,41,10,24.6,16.4,55,0,137.638,0,25,24,88.4052,53.5
808,65.6,28,3,1,1,0,0,0.2,0.5,0,0,0,0,0.29,0,409,0,0,0,0,1290,549,102,41,0,0,102,0.137,0.294,0.57,13.97,29.99,58.038,41,10,24.6,16.4,55,0,137.638,0,25,24,78.5892,24.5
848,40.17,13.86,15.16,9.7,9.57,3.66,1.53,0.09,0,0,0,0,0,4.75,0,0,0,0,0,410,740,1110,103,41,2.13,1.53,103,0.11,0.29,0.6,11.33,29.87,61.8,41,14,18.04,22.96,124,12.3,211.22,0,25,24,113.0524,16.4
850,40.17,13.86,15.16,9.7,9.57,3.66,1.53,0.09,0,0,0,0,0,4.75,0,0,0,0,0,410,740,1110,103,41,2.13,1.53,103,0.11,0.29,0.6,11.33,29.87,61.8,41,14,18.04,22.96,101,16.4,190.68,0,25,24,120.7604,21.4
852,40.17,13.86,15.16,9.7,9.57,3.66,1.53,0.09,0,0,0,0,0,4.75,0,0,0,0,0,410,740,1110,103,41,2.13,1.53,103,0.11,0.29,0.6,11.33,29.87,61.8,41,12,21.32,19.68,98,16.4,190.96,0,25,24,114.4792,18.3
854,40.17,13.86,15.16,9.7,9.57,3.66,1.53,0.09,0,0,0,0,0,4.75,0,0,0,0,0,410,740,1110,41,103,2.13,1.53,41,0.11,0.29,0.6,4.51,11.89,24.6,103,12,53.56,49.44,94,12.3,179.54,0,25,24,141.4416,10.8
856,40.17,13.86,15.16,9.7,9.57,3.66,1.53,0.09,0,0,0,0,0,4.75,0,0,0,0,0,410,740,1110,103,41,2.13,1.53,103,0.11,0.29,0.6,11.33,29.87,61.8,41,14,18.04,22.96,101,20.5,193.14,0,25,24,128.4684,19.6
858,40.17,13.86,15.16,9.7,9.57,3.66,1.53,0.09,0,0,0,0,0,4.75,0,0,0,0,0,410,740,1110,96,48,2.13,1.53,96,0.11,0.29,0.6,10.56,27.84,57.6,48,14,21.12,26.88,101,12.3,187.1,0,25,24,118.0392,19.5
860,40.17,13.86,15.16,9.7,9.57,3.66,1.53,0.09,0,0,0,0,0,4.75,0,0,0,0,0,410,740,1110,117,47,2.13,1.53,117,0.11,0.29,0.6,12.87,33.93,70.2,47,14,20.68,26.32,92,12.3,190.26,0,25,24,124.5268,23.5
862,40.17,13.86,15.16,9.7,9.57,3.66,1.53,0.09,0,0,0,0,0,4.75,0,0,0,0,0,410,740,1110,146.5,58.5,2.13,1.53,146.5,0.11,0.29,0.6,16.12,42.49,87.9,58.5,14,25.74,32.76,74,12.3,195.02,0,25,24,147.4794,19.8
875,32.62,31.23,8.48,17.12,3.49,0.91,0.1,0,1.65,0,0,0,0,0.93,0,444,0,0,0,0,1260,540,111,45,0,0,111,0.147,0.294,0.56,16.32,32.63,62.049,45,8,30.6,14.4,36,5.8,132.129,0,25,24,88.856,15.1027
877,32.62,31.23,8.48,17.12,3.49,0.91,0.1,0,1.65,0,0,0,0,0.93,0,444,0,0,0,0,1260,540,111,45,0,0,111,0.147,0.294,0.56,16.32,32.63,62.049,45,12,23.4,21.6,36,5.8,124.929,0,25,24,102.644,31.1644
879,32.62,31.23,8.48,17.12,3.49,0.91,0.1,0,1.65,0,0,0,0,0.93,0,414,0,0,0,0,1260,540,133,53,0,0,133,0.147,0.294,0.56,19.55,39.1,74.347,53,8,36.04,16.96,14,5.8,127.867,1,60,24,124.017,14.6454
939,61.89,28.05,4.11,0.87,0.38,0.4,0.82,1.32,0,0,0,0,0,0.49,0,400,0,0,0,0,1419,344,120,80,1.451,1.35,120,0.09,0.28,0.63,10.8,33.6,75.6,80,16,28.8,51.2,0,4,106.8,1,60,24,181.289,45.95
941,61.89,28.05,4.11,0.87,0.38,0.4,0.82,1.32,0,0,0,0,0,0.49,0,286,0,0,0,0,1533,371,120,80,1.451,1.35,120,0.09,0.28,0.63,10.8,33.6,75.6,80,16,28.8,51.2,0,0,104.4,1,60,24,173.99,33.41
1021,39.8065,17.9952,5.62716,18.8643,3.57837,0.954125,2.82354,1.24467,0.897704,0.101868,0.0520233,0.234358,0,3.10109,0,308,206,0,0,0,935,615,121,99,0,0,121,0.128,0.255,0.62,15.49,30.86,74.657,99,10,59.4,39.6,75,0,209.057,0,25,24,138.778,61.8
1023,39.82,18.004,5.634,18.832,3.574,0.954,2.826,1.244,0.898,0.102,0.052,0.234,0,3.102,0,240,160,0,0,0,1110,720,94,77,0,0,94,0.128,0.255,0.62,12.03,23.97,57.998,77,10,46.2,30.8,55,0,159.198,0,25,24,110.886,69.1
1026,39.82,18.004,5.634,18.832,3.574,0.954,2.826,1.244,0.898,0.102,0.052,0.234,0,3.102,0,240,160,0,0,0,1070,710,94,77,0,0,94,0.128,0.255,0.62,12.03,23.97,57.998,77,10,46.2,30.8,70,0,174.198,0,25,24,110.646,66.7
1028,39.82,18.004,5.634,18.832,3.574,0.954,2.826,1.244,0.898,0.102,0.052,0.234,0,3.102,0,210,140,0,0,0,1120,730,83,67,0,0,83,0.128,0.255,0.62,10.62,21.17,51.211,67,10,40.2,26.8,80,0,171.411,0,25,24,98.202,56.1
1030,39.8291,18.0099,5.63859,18.8103,3.57107,0.953916,2.82765,1.24355,0.898198,0.102089,0.0519843,0.23376,0,3.10261,0,230,153,0,0,0,1111,721,90,74,0,0,90,0.128,0.255,0.62,11.52,22.95,55.53,74,10,44.4,29.6,63,0,162.93,0,25,24,106.7536,58.6
1032,39.8296,18.0102,5.63884,18.8091,3.57091,0.953912,2.82774,1.24353,0.898209,0.102094,0.0519835,0.233747,0,3.10264,0,218,145,0,0,0,1111,721,86,70,0,0,86,0.128,0.255,0.62,11.01,21.93,53.062,70,10,42,28,76,0,171.062,0,25,24,101.7856,51.2
1034,39.82,18.004,5.634,18.832,3.574,0.954,2.826,1.244,0.898,0.102,0.052,0.234,0,3.102,0,216,144,0,0,0,1145,742,85,69,0,0,85,0.128,0.255,0.62,10.88,21.68,52.445,69,10,41.4,27.6,59,0,152.845,0,25,24,100.8636,56.1
1036,39.83,18.0105,5.63905,18.8082,3.57078,0.953908,2.82782,1.24351,0.898218,0.102098,0.0519828,0.233736,0,3.10267,0,209,139,0,0,0,1160,753,82,67,0,0,82,0.128,0.255,0.62,10.5,20.91,50.594,67,10,40.2,26.8,57,0,147.794,0,25,24,98.0884,56.8
1038,39.82,18.004,5.634,18.832,3.574,0.954,2.826,1.244,0.898,0.102,0.052,0.234,0,3.102,0,198,132,0,0,0,1160,753,78,64,0,0,78,0.128,0.255,0.62,9.98,19.89,48.126,64,10,38.4,25.6,69,0,155.526,0,25,24,93.9424,36.2
1151,47.6,21.4,7.8,11.9,1.8,0.7,0.82,2.8,1.88,0,0,0,0,3.3,0,550,0,0,0,0,838,600,144,95,0,0,144,0.12,0.3,0.58,17.28,43.2,83.52,95,10,57,38,0,0,140.52,0,25,24,133.7124,36.9
1153,47.6,21.4,7.8,11.9,1.8,0.7,0.82,2.8,1.88,0,0,0,0,3.3,0,550,0,0,0,0,838,600,144,95,0,0,144,0.12,0.3,0.58,17.28,43.2,83.52,95,14,41.8,53.2,0,0,125.32,0,25,24,162.8204,38.5
1232,46.78,22.52,9.15,2.24,1.33,0.89,4.09,0.9,1.05,0.17,0,0,0.05,3.57,0,380,0,0,0,0,1111,721,89,73,0,0,89,0.128,0.255,0.62,11.39,22.7,54.913,73,7.5,51.1,21.9,0,0,106.013,28,70,65,892.7921,16.6001
1234,46.78,22.52,9.15,2.24,1.33,0.89,4.09,0.9,1.05,0.17,0,0,0.05,3.57,0,367,0,0,0,0,1145,742,86,71,0,0,86,0.128,0.255,0.62,11.01,21.93,53.062,71,7.5,49.7,21.3,0,0,102.762,28,70,65,890.7751,18.8635
1236,46.78,22.52,9.15,2.24,1.33,0.89,4.09,0.9,1.05,0.17,0,0,0.05,3.57,0,348,0,0,0,0,1145,742,82,67,0,0,82,0.128,0.255,0.62,10.5,20.91,50.594,67,7.5,46.9,20.1,0,0,97.494,28,70,65,886.9611,11.7314
1238,46.78,22.52,9.15,2.24,1.33,0.89,4.09,0.9,1.05,0.17,0,0,0.05,3.57,0,346,0,0,0,0,1160,753,81,67,0,0,81,0.128,0.255,0.62,10.37,20.66,49.977,67,7.5,46.9,20.1,0,0,96.877,28,70,65,886.7179,16.5798
1240,43.3175,20.2734,7.40086,10.4942,2.44635,0.921839,3.46118,1.07113,0.974383,0.136171,0,0,0.141537,3.33718,0,318,79,0,0,0,1111,721,93,77,0,0,93,0.128,0.255,0.62,11.9,23.72,57.381,77,7.5,53.9,23.1,0,0,111.281,0,20,24,91.8901,38.8586
1242,43.3093,20.268,7.39668,10.5139,2.44902,0.921915,3.45968,1.07154,0.974202,0.13609,0,0,0.141755,3.33662,0,301,75,0,0,0,1111,721,89,73,0,0,89,0.128,0.255,0.62,11.39,22.7,54.913,73,7.5,51.1,21.9,0,0,106.013,0,20,24,87.8761,37.6314
1244,43.2904,20.2558,7.38717,10.5588,2.45508,0.922088,3.45626,1.07247,0.973791,0.135907,0,0,0.142253,3.33536,0,291,73,0,0,0,1145,742,85,70,0,0,85,0.128,0.255,0.62,10.88,21.68,52.445,70,7.5,49,21,0,0,101.445,0,20,24,84.8326,40.5231
1246,43.3,20.262,7.392,10.536,2.452,0.922,3.458,1.072,0.974,0.136,0,0,0.142,3.336,0,276,69,0,0,0,1145,742,81,67,0,0,81,0.128,0.255,0.62,10.37,20.66,49.977,67,7.5,46.9,20.1,0,0,96.877,0,20,24,81.4011,30.0265
1248,43.3099,20.2684,7.39701,10.5124,2.4488,0.921909,3.4598,1.07151,0.974217,0.136097,0,0,0.141738,3.33667,0,281,70,0,0,0,1160,753,83,68,0,0,83,0.128,0.255,0.62,10.62,21.17,51.211,68,7.5,47.6,20.4,0,0,98.811,0,20,24,82.8924,38.1614
1250,43.2896,20.2552,7.38674,10.5608,2.45536,0.922096,3.45611,1.07251,0.973772,0.135898,0,0,0.142275,3.3353,0,267,67,0,0,0,1160,753,79,64,0,0,79,0.128,0.255,0.62,10.11,20.15,48.743,64,7.5,44.8,19.2,0,0,93.543,0,20,24,78.9424,32.1143
1252,39.8291,18.0099,5.63859,18.8103,3.57107,0.953916,2.82765,1.24355,0.898198,0.102089,0,0,0.23376,3.10261,0,230,153,0,0,0,1111,721,90,74,0,0,90,0.128,0.255,0.62,11.52,22.95,55.53,74,7.5,51.8,22.2,0,0,107.33,0,20,24,92.5826,57.9994
1254,39.8296,18.0102,5.63884,18.8091,3.57091,0.953912,2.82774,1.24353,0.898209,0.102094,0,0,0.233747,3.10264,0,218,145,0,0,0,1111,721,86,70,0,0,86,0.128,0.255,0.62,11.01,21.93,53.062,70,7.5,49,21,0,0,102.062,0,20,24,88.3806,50.9846
1256,39.82,18.004,5.634,18.832,3.574,0.954,2.826,1.244,0.898,0.102,0,0,0.234,3.102,0,216,144,0,0,0,1145,742,85,69,0,0,85,0.128,0.255,0.62,10.88,21.68,52.445,69,7.5,48.3,20.7,0,0,100.745,0,20,24,87.6501,55.7848
1258,39.83,18.0105,5.63905,18.8082,3.57078,0.953908,2.82782,1.24351,0.898218,0.102098,0,0,0.233736,3.10267,0,209,139,0,0,0,1160,753,82,67,0,0,82,0.128,0.255,0.62,10.5,20.91,50.594,67,7.5,46.9,20.1,0,0,97.494,0,20,24,85.2579,56.9035
1260,39.82,18.004,5.634,18.832,3.574,0.954,2.826,1.244,0.898,0.102,0,0,0.234,3.102,0,198,132,0,0,0,1160,753,78,64,0,0,78,0.128,0.255,0.62,9.98,19.89,48.126,64,7.5,44.8,19.2,0,0,92.926,0,20,24,81.6864,36.1373
1262,34.6145,14.6264,3.00435,31.2413,5.25231,1.00187,1.88064,1.50128,0.784318,0.0511421,0,0,0.371616,2.75198,0,108,251,0,0,0,1111,721,84,69,0,0,84,0.128,0.255,0.62,10.75,21.42,51.828,69,7.5,48.3,20.7,0,0,100.128,0,20,24,92.1581,70.8577
1264,34.5902,14.6106,2.99203,31.2994,5.26017,1.00209,1.87621,1.50249,0.783785,0.050904,0,0,0.37226,2.75034,0,106,248,0,0,0,1145,742,83,68,0,0,83,0.128,0.255,0.62,10.62,21.17,51.211,68,7.5,47.6,20.4,0,0,98.811,0,20,24,91.3236,70.5511
1266,34.6159,14.6273,3.00502,31.2382,5.25188,1.00185,1.88088,1.50122,0.784347,0.051155,0,0,0.371581,2.75207,0,99,230,0,0,0,1145,742,77,63,0,0,77,0.128,0.255,0.62,9.86,19.64,47.509,63,7.5,44.1,18.9,0,0,91.609,0,20,24,85.3271,68.0015
1268,34.6107,14.6239,3.00239,31.2506,5.25356,1.0019,1.87994,1.50147,0.784233,0.0511043,0,0,0.371718,2.75172,0,98,228,0,0,0,1160,753,77,63,0,0,77,0.128,0.255,0.62,9.86,19.64,47.509,63,7.5,44.1,18.9,0,0,91.609,0,20,24,85.3439,66.8746
1315,50.76,27.32,4.64,5.4,3.72,0.8,4.85,2,1.16,0,0,0,0,0,0,280,0,0,0,0,1309,561,126,84,0,0,126,0.0883,0.2764,0.64,11.13,34.83,80.0478,84,12,43.68,40.32,0,0,123.7278,0,25,24,132.6688,25.4
1317,50.76,27.32,4.64,5.4,3.72,0.8,4.85,2,1.16,0,0,0,0,0,0,280,0,0,0,0,1309,561,126,84,0,0,126,0.0883,0.2764,0.64,11.13,34.83,80.0478,84,12,43.68,40.32,0,0,123.7278,1,80,24,167.96,43.3
1319,50.76,27.32,4.64,5.4,3.72,0.8,4.85,2,1.16,0,0,0,0,0,0,280,0,0,0,0,1309,561,126,84,0,0,126,0.0883,0.2764,0.64,11.13,34.83,80.0478,84,12,43.68,40.32,0,0,123.7278,1,80,24,167.96,48.1
1321,45.009,15.856,11.007,10.558,9.486,3.653,1.131,0.034,2.4,0.426,0,0,0,1,0,0,0,0,0,384,1185.6,683.4,103,54.85,0,0,103,0.115,0.3,0.59,11.85,30.9,60.255,54.85,8,37.298,17.552,0,7.68,102.161,0,25,24,94.12712,15.5
1323,55.1232,12.7968,8.8916,8.5564,7.6688,2.9224,0.9048,0.0272,1.92,0.3408,0,0,0,0.8,0,76.8,0,0,0,307.2,1185.6,683.4,103,54.85,0,0,103,0.115,0.3,0.59,11.85,30.9,60.255,54.85,8,37.298,17.552,0,7.68,102.161,0,25,24,94.40888,8.75
1325,65.2374,9.7376,6.7762,6.5548,5.8516,2.1918,0.6786,0.0204,1.44,0.2556,0,0,0,0.6,0,153.6,0,0,0,230.4,1185.6,683.4,103,54.85,0,0,103,0.115,0.3,0.59,11.85,30.9,60.255,54.85,8,37.298,17.552,0,7.68,102.161,0,25,24,94.71608,4.25
1327,45.7081,17.6604,10.3063,9.6222,8.6184,3.3707,1.1009,0.0306,2.187,0.3834,0,0,0,1.045,0,38.4,0,0,0,345.6,1185.6,683.4,103,54.85,0,0,103,0.115,0.3,0.59,11.85,30.9,60.255,54.85,8,37.298,17.552,0,7.68,102.161,0,25,24,94.25528,16
1329,47.1063,21.2692,8.9049,7.7506,6.8832,2.8061,1.0407,0.0238,1.761,0.2982,0,0,0,1.135,0,115.2,0,0,0,268.8,1185.6,683.4,103,54.85,0,0,103,0.115,0.3,0.59,11.85,30.9,60.255,54.85,8,37.298,17.552,0,7.68,102.161,0,25,24,94.56248,20.5
1331,48.5045,24.878,7.5035,5.879,5.148,2.2415,0.9805,0.017,1.335,0.213,0,0,0,1.225,0,192,0,0,0,192,1185.6,683.4,103,54.85,0,0,103,0.115,0.3,0.59,11.85,30.9,60.255,54.85,8,37.298,17.552,0,7.68,102.161,0,25,24,94.86968,13
1333,42.7672,15.6448,9.4056,16.2064,9.0068,2.9724,0.9928,0.0272,1.92,0.3408,0,0,0,1.16,0,0,76.8,0,0,307.2,1185.6,683.4,103,54.85,0,0,103,0.115,0.3,0.59,11.85,30.9,60.255,54.85,8,37.298,17.552,0,7.68,102.161,0,25,24,98.09528,24
1335,40.5254,15.4336,7.8042,21.8548,8.5276,2.2918,0.8546,0.0204,1.44,0.2556,0,0,0,1.32,0,0,153.6,0,0,230.4,1185.6,683.4,103,54.85,0,0,103,0.115,0.3,0.59,11.85,30.9,60.255,54.85,8,37.298,17.552,0,7.68,102.161,0,25,24,102.089,46
1386,51.593,25.134,1.526,7.045,9.34,0.709,2.368,0.686,0.853,0,0,0,0,0,0,360,40,0,0,0,1197,644,107,53,0,0,107,0.1536,0.3071,0.54,16.44,32.86,57.7051,53,10,31.8,21.2,0,4,91.9051,0,25,20,98.9948,21.7153
1388,49.946,23.848,1.402,10.44,9.13,0.658,2.166,0.812,0.846,0,0,0,0,0,0,320,80,0,0,0,1203,646,107,53,0,0,107,0.1536,0.3071,0.54,16.44,32.86,57.7051,53,10,31.8,21.2,0,4,91.9051,0,25,20,100.9532,41.8978
1390,48.299,22.562,1.278,13.835,8.92,0.607,1.964,0.938,0.839,0,0,0,0,0,0,280,120,0,0,0,1210,652,107,53,0,0,107,0.1536,0.3071,0.54,16.44,32.86,57.7051,53,10,31.8,21.2,0,4,91.9051,0,25,20,102.9356,56.4599
1392,49.946,23.848,1.402,10.44,9.13,0.658,2.166,0.812,0.846,0,0,0,0,0,0,320,80,0,0,0,1203,648,107,53,0,0,107,0.1536,0.3071,0.54,16.44,32.86,57.7051,53,12,27.56,25.44,0,4,87.6651,0,25,20,109.0824,45.1852
1394,50.7695,24.491,1.464,8.7425,9.235,0.6835,2.267,0.749,0.8495,0,0,0,0,0,0,340,60,0,0,0,1209,651,93,47,0,0,93,0.1536,0.3071,0.54,14.28,28.56,50.1549,47,10,28.2,18.8,0,4,80.7549,0,25,20,90.41,29.6205
1396,49.1225,23.205,1.34,12.1375,9.025,0.6325,2.065,0.875,0.8425,0,0,0,0,0,0,300,100,0,0,0,1246,671,93,47,0,0,93,0.1536,0.3071,0.54,14.28,28.56,50.1549,47,10,28.2,18.8,0,4,80.7549,0,25,20,92.6036,48.6402
1398,49.1225,23.205,1.34,12.1375,9.025,0.6325,2.065,0.875,0.8425,0,0,0,0,0,0,300,100,0,0,0,1223,659,114,46,0,0,114,0.1536,0.3071,0.54,17.51,35.01,61.4802,46,10,27.6,18.4,0,4,91.4802,0,25,20,99.2296,38.7337
1714,54.234,24.65,3.385,11.063,0,0.319,0.71,0,0,0,0,0,0,0.456,0,280,120,0,0,0,1091,680,120,80,14115,1.4,120,0.1,0.275,0.625,12,33,75,80,14,35.2,44.8,122,4.8,235.08,0,24,24,153.8768,56.42
1716,54.234,24.65,3.385,11.063,0,0.319,0.71,0,0,0,0,0,0,0.456,0,200,85,0,0,0,1163,726,120,80,14115,1.4,120,0.1,0.275,0.625,12,33,75,80,14,35.2,44.8,122,0,232.2,0,24,24,143.2792,39.6
1718,50.76,27.32,4.64,5.4,3.72,0.8,4.85,2,1.16,0,0,0,0,0,0,280,0,0,0,0,1309,561,126,84,0,0,126,0.0883,0.2764,0.64,11.13,34.83,80.0478,84,12,43.68,40.32,0,0,123.7278,0,25,24,132.6688,25.4
1720,50.76,27.32,4.64,5.4,3.72,0.8,4.85,2,1.16,0,0,0,0,0,0,280,0,0,0,0,1309,561,126,84,0,0,126,0.0883,0.2764,0.64,11.13,34.83,80.0478,84,12,43.68,40.32,0,0,123.7278,1,80,24,167.96,43.3
1724,49.2274,26.1356,4.543646,8.32401,3.697104,0.77615,4.641551,2.1431,1.144736,0,0,0,0,0,14,280,0,0,0,0,1309,561,126,84,0,0,126,0.0883,0.2764,0.64,11.13,34.83,80.0478,84,12,43.68,40.32,0,0,123.7278,0,25,24,144.4288,20.2
1726,49.2274,26.1356,4.543646,8.32401,3.697104,0.77615,4.641551,2.1431,1.144736,0,0,0,0,0,14,280,0,0,0,0,1309,561,126,84,0,0,126,0.0883,0.2764,0.64,11.13,34.83,80.0478,84,12,43.68,40.32,0,0,123.7278,1,80,24,179.72,51
1729,49.2274,26.1356,4.543646,8.32401,3.697104,0.77615,4.641551,2.1431,1.144736,0,0,0,0,0,14,280,0,0,0,0,1309,561,126,84,0,0,126,0.0883,0.2764,0.64,11.13,34.83,80.0478,84,12,43.68,40.32,0,0,123.7278,1,80,24,179.72,52.6