File: DS_cube_100_3_Strength.csv
Idx_Sample,SiO2,Al2O3,Fe2O3,CaO,MgO,Na2O,K2O,SO3,TiO2,P2O5,SrO,Mn2O3,MnO,LOI,Cement (kg/m3),FA (kg/m3),GGBFS (kg/m3),SF (kg/m3),Kaolin (kg/m3),Other SCM (kg/m3),Coarse aggregate (kg/m3),Fine aggregate (kg/m3),Na2SiO3,NaOH,NaOH specific gravity,Na2SiO3 specific gravity,Total solution,Na2O (l),Sio2 (l),H2O,Na2O (Dry),Sio2 (Dry),Water,Total NaOH,Concentration (M) NaOH,Water,NaOH (Dry),Additional water,Superplasticizer,water -eff,Initial curing time (day),Initial curing temp (C),Final curing temp (C),Mixture CO2 (Na2SiO3 as solution),7-d Cubic compressive strength (MPa)
192,51.3,30.1,4.57,8.73,0,0,1.56,1.4,0.698,1.6,0,0,0,0,0,400,0,0,0,0,950,850,143,57,0,0,143,0.1426,0.2943,0.56,20.39,42.08,80.5233,57,12,29.64,27.36,48,28,174.9633,1,70,24,195.6294,46.94
193,51.3,30.1,4.57,8.73,0,0,1.56,1.4,0.698,1.6,0,0,0,0,0,400,0,0,0,0,950,850,143,57,0,0,143,0.1426,0.2943,0.56,20.39,42.08,80.5233,57,12,29.64,27.36,48,28,174.9633,2,70,24,224.5044,52.26
194,51.3,30.1,4.57,8.73,0,0,1.56,1.4,0.698,1.6,0,0,0,0,0,400,0,0,0,0,950,850,143,57,0,0,143,0.1426,0.2943,0.56,20.39,42.08,80.5233,57,12,29.64,27.36,48,28,174.9633,3,70,24,253.3794,52.69
195,51.3,30.1,4.57,8.73,0,0,1.56,1.4,0.698,1.6,0,0,0,0,0,400,0,0,0,0,950,850,143,57,0,0,143,0.1426,0.2943,0.56,20.39,42.08,80.5233,57,12,29.64,27.36,48,28,174.9633,4,70,24,282.2544,52.72
196,51.3,30.1,4.57,8.73,0,0,1.56,1.4,0.698,1.6,0,0,0,0,0,400,0,0,0,0,950,850,143,57,0,0,143,0.1426,0.2943,0.56,20.39,42.08,80.5233,57,12,29.64,27.36,48,28,174.9633,2,60,24,211.671,45.98
197,51.3,30.1,4.57,8.73,0,0,1.56,1.4,0.698,1.6,0,0,0,0,0,400,0,0,0,0,950,850,143,57,0,0,143,0.1426,0.2943,0.56,20.39,42.08,80.5233,57,12,29.64,27.36,48,28,174.9633,2,70,24,224.5044,52.26
198,51.3,30.1,4.57,8.73,0,0,1.56,1.4,0.698,1.6,0,0,0,0,0,400,0,0,0,0,950,850,143,57,0,0,143,0.1426,0.2943,0.56,20.39,42.08,80.5233,57,12,29.64,27.36,48,28,174.9633,2,80,24,237.338,49.8
199,51.3,30.1,4.57,8.73,0,0,1.56,1.4,0.698,1.6,0,0,0,0,0,400,0,0,0,0,950,850,143,57,0,0,143,0.1426,0.2943,0.56,20.39,42.08,80.5233,57,12,29.64,27.36,48,28,174.9633,2,90,24,250.171,49.67
366,52.54,26.74,11.12,1.28,0.87,0.47,0.82,1.7,1.57,1.53,0,0,0,1.36,0,450,0,0,0,0,1211.9,579.35,128.63,51.45,0,0,128.63,0.147,0.294,0.56,18.91,37.82,71.90417,51.45,8,34.986,16.464,0,0,106.89,1,60,24,110.692,49.5
367,52.54,26.74,11.12,1.28,0.87,0.47,0.82,1.7,1.57,1.53,0,0,0,1.36,0,450,0,0,0,0,1211.9,579.35,128.63,51.45,0,0,128.63,0.147,0.294,0.56,18.91,37.82,71.90417,51.45,10,30.87,20.58,0,0,102.774,1,60,24,118.574,48.33
368,52.54,26.74,11.12,1.28,0.87,0.47,0.82,1.7,1.57,1.53,0,0,0,1.36,0,450,0,0,0,0,1211.9,579.35,128.63,51.45,0,0,128.63,0.147,0.294,0.56,18.91,37.82,71.90417,51.45,12,26.754,24.696,0,0,98.65817,1,60,24,126.456,46.72
369,52.54,26.74,11.12,1.28,0.87,0.47,0.82,1.7,1.57,1.53,0,0,0,1.36,0,450,0,0,0,0,1211.9,579.35,144.68,57.88,0,0,144.68,0.147,0.294,0.56,21.27,42.54,80.87612,57.88,8,39.3584,18.5216,0,0,120.235,1,60,24,120.41,50.02
370,52.54,26.74,11.12,1.28,0.87,0.47,0.82,1.7,1.57,1.53,0,0,0,1.36,0,450,0,0,0,0,1211.9,579.35,144.68,57.88,0,0,144.68,0.147,0.294,0.56,21.27,42.54,80.87612,57.88,10,34.728,23.152,0,0,115.604,1,60,24,129.277,49.13
371,52.54,26.74,11.12,1.28,0.87,0.47,0.82,1.7,1.57,1.53,0,0,0,1.36,0,450,0,0,0,0,1211.9,579.35,144.68,57.88,0,0,144.68,0.147,0.294,0.56,21.27,42.54,80.87612,57.88,12,30.0976,27.7824,0,0,110.974,1,60,24,138.144,47.24
372,52.54,26.74,11.12,1.28,0.87,0.47,0.82,1.7,1.57,1.53,0,0,0,1.36,0,450,0,0,0,0,1211.9,579.35,160.78,64.31,0,0,160.78,0.147,0.294,0.56,23.63,47.27,89.87602,64.31,8,43.7308,20.5792,0,0,133.607,1,60,24,130.146,52.08
373,52.54,26.74,11.12,1.28,0.87,0.47,0.82,1.7,1.57,1.53,0,0,0,1.36,0,450,0,0,0,0,1211.9,579.35,160.78,64.31,0,0,160.78,0.147,0.294,0.56,23.63,47.27,89.87602,64.31,10,38.586,25.724,0,0,128.462,1,60,24,139.999,50.73
374,52.54,26.74,11.12,1.28,0.87,0.47,0.82,1.7,1.57,1.53,0,0,0,1.36,0,450,0,0,0,0,1211.9,579.35,160.78,64.31,0,0,160.78,0.147,0.294,0.56,23.63,47.27,89.87602,64.31,12,33.4412,30.8688,0,0,123.317,1,60,24,149.851,49.26
375,52.54,26.74,11.12,1.28,0.87,0.47,0.82,1.7,1.57,1.53,0,0,0,1.36,0,450,0,0,0,0,1211.9,579.35,176.85,70.74,0,0,176.85,0.147,0.294,0.56,26,51.99,98.85915,70.74,8,48.1032,22.6368,0,0,146.962,1,60,24,139.872,49.75
376,52.54,26.74,11.12,1.28,0.87,0.47,0.82,1.7,1.57,1.53,0,0,0,1.36,0,450,0,0,0,0,1211.9,579.35,176.85,70.74,0,0,176.85,0.147,0.294,0.56,26,51.99,98.85915,70.74,10,42.444,28.296,0,0,141.303,1,60,24,150.709,48.63
377,52.54,26.74,11.12,1.28,0.87,0.47,0.82,1.7,1.57,1.53,0,0,0,1.36,0,450,0,0,0,0,1211.9,579.35,176.85,70.74,0,0,176.85,0.147,0.294,0.56,26,51.99,98.85915,70.74,12,36.7848,33.9552,0,0,135.644,1,60,24,161.547,47.84
399,52.75,19.97,2.285,20.565,1.025,0.47,0.885,0.2,0.545,0,0,0,0,1.43,0,194,194,0,0,0,1241,523,49.6,24.8,0,1.54,49.6,0.1434,0.3223,0.53,7.11,15.99,26.50128,24.8,3,21.824,2.976,0,0,48.32528,0,25,24,42.88624,36
416,51.3,30.1,4.57,8.73,0,0,1.56,1.4,0.7,1.6,0,0,0,0,0,400,0,0,0,0,950,850,143,57,0,0,143,0.1436,0.2943,0.56,20.53,42.08,80.3803,57,8,38.76,18.24,48,24,181.5403,2,70,24,199.5196,49.25
417,53.245,28.636,4.425,8.3555,0,0,1.683,1.4,0.665,1.52,0,0,0,0,0,400,0,20,0,0,950,850,143,58,0,0,143,0.1436,0.2943,0.56,20.53,42.08,80.3803,58,10,34.8,23.2,48,24,177.5803,2,70,24,209.298,51.62
418,55.19,27.172,4.28,7.981,0,0,1.806,1.4,0.63,1.44,0,0,0,0,0,400,0,40,0,0,950,850,143,59,0,0,143,0.1436,0.2943,0.56,20.53,42.08,80.3803,59,12,30.68,28.32,48,24,173.4603,2,70,24,219.3828,53.76
419,57.135,25.708,4.135,7.6065,0,0,1.929,1.4,0.595,1.36,0,0,0,0,0,400,0,60,0,0,950,850,143,60,0,0,143,0.1436,0.2943,0.56,20.53,42.08,80.3803,60,14,26.4,33.6,48,24,169.1803,2,70,24,229.774,51.55
511,45.2472,24.9564,2.43864,17.4094,5.39462,0.184472,0.718438,0,1.20387,0.248175,0,0,0,0.820551,0,394,259,0,0,0,858,520,108,92,1.17,1.54,108,0.1492,0.298,0.55,16.11,32.18,59.7024,92,8,62.56,29.44,90,0,212.2624,0,25,24,116.916,46.5
512,45.2472,24.9564,2.43864,17.4094,5.39462,0.184472,0.718438,0,1.20387,0.248175,0,0,0,0.820551,0,394,259,0,0,0,858,520,98,82,1.17,1.54,98,0.1492,0.298,0.55,14.62,29.2,54.1744,82,8,55.76,26.24,104,0,213.9344,0,25,24,107.188,47.75
513,45.2472,24.9564,2.43864,17.4094,5.39462,0.184472,0.718438,0,1.20387,0.248175,0,0,0,0.820551,0,394,259,0,0,0,858,520,81,69,1.17,1.54,81,0.1492,0.298,0.55,12.09,24.14,44.7768,69,8,46.92,22.08,125,0,216.6968,0,25,24,93.1016,38.25
514,48.8814,27.7781,2.7594,12.2577,3.68498,0.207267,0.739605,0,1.39112,0.314607,0,0,0,0.750537,0,485,148,0,0,0,858,520,108,92,1.17,1.54,108,0.1492,0.298,0.55,16.11,32.18,59.7024,92,8,62.56,29.44,90,0,212.2624,0,25,24,111.508,33.75
515,48.8814,27.7781,2.7594,12.2577,3.68498,0.207267,0.739605,0,1.39112,0.314607,0,0,0,0.750537,0,485,148,0,0,0,858,520,98,82,1.17,1.54,98,0.1492,0.298,0.55,14.62,29.2,54.1744,82,8,55.76,26.24,104,0,213.9344,0,25,24,101.78,31.75
516,48.8814,27.7781,2.7594,12.2577,3.68498,0.207267,0.739605,0,1.39112,0.314607,0,0,0,0.750537,0,485,148,0,0,0,858,520,81,69,1.17,1.54,81,0.1492,0.298,0.55,12.09,24.14,44.7768,69,8,46.92,22.08,125,0,216.6968,0,25,24,87.6936,12
517,49.636,28.364,2.826,11.188,3.33,0.212,0.744,0,1.43,0.3284,0,0,0,0.736,0,504,126,0,0,0,858,520,108,92,1.17,1.54,108,0.1492,0.298,0.55,16.11,32.18,59.7024,92,8,62.56,29.44,90,0,212.2624,0,25,24,110.44,33
518,49.636,28.364,2.826,11.188,3.33,0.212,0.744,0,1.43,0.3284,0,0,0,0.736,0,504,126,0,0,0,858,520,98,82,1.17,1.54,98,0.1492,0.298,0.55,14.62,29.2,54.1744,82,8,55.76,26.24,104,0,213.9344,0,25,24,100.712,28.75
519,45.2472,24.9564,2.43864,17.4094,5.39462,0.184472,0.718438,0,1.20387,0.248175,0,0,0,0.820551,0,394,259,0,0,0,858,520,81,69,1.17,1.54,81,0.1492,0.298,0.55,12.09,24.14,44.7768,69,8,46.92,22.08,125,0,216.6968,0,25,24,93.1016,5.25
594,30.97,17.41,1.03,36.77,9.01,0.69,0.46,1.82,0,0,0,0,0,0,0,0,356.36,0,0,0,1284.29,467.12,80.18,80.18,0,0,80.18,0.09,0.28,0.63,7.22,22.45,50.5134,80.18,8,54.5224,25.6576,0,3.56,107.1718,0,24,24,111.629,38.6723
595,30.97,17.41,1.03,36.77,9.01,0.69,0.46,1.82,0,0,0,0,0,0,0,0,356.36,0,0,0,1284.29,467.12,96.216,64.144,0,0,96.216,0.09,0.28,0.63,8.66,26.94,60.61608,64.144,8,43.61792,20.52608,0,3.56,106.37,0,24,24,107.575,50.9703
596,30.97,17.41,1.03,36.77,9.01,0.69,0.46,1.82,0,0,0,0,0,0,0,0,356.36,0,0,0,1284.29,467.12,106.907,53.4533,0,0,106.907,0.09,0.28,0.63,9.62,29.93,67.3512,53.4533,8,36.3483,17.1051,0,3.56,105.835,0,24,24,104.873,47.7076
597,30.97,17.41,1.03,36.77,9.01,0.69,0.46,1.82,0,0,0,0,0,0,0,0,356.36,0,0,0,1284.29,467.12,80.18,80.18,0,0,80.18,0.09,0.28,0.63,7.22,22.45,50.5134,80.18,10,48.108,32.072,0,3.56,100.7574,0,24,24,123.913,39.3846
598,30.97,17.41,1.03,36.77,9.01,0.69,0.46,1.82,0,0,0,0,0,0,0,0,356.36,0,0,0,1284.29,467.12,96.216,64.144,0,0,96.216,0.09,0.28,0.63,8.66,26.94,60.61608,64.144,10,38.4864,25.6576,0,3.56,101.238,0,24,24,117.402,60
599,30.97,17.41,1.03,36.77,9.01,0.69,0.46,1.82,0,0,0,0,0,0,0,0,356.36,0,0,0,1284.29,467.12,106.907,53.4533,0,0,106.907,0.09,0.28,0.63,9.62,29.93,67.3512,53.4533,10,32.072,21.3813,0,3.56,101.5592,0,24,24,113.062,52.9231
600,30.97,17.41,1.03,36.77,9.01,0.69,0.46,1.82,0,0,0,0,0,0,0,0,356.36,0,0,0,1284.29,467.12,80.18,80.18,0,0,80.18,0.09,0.28,0.63,7.22,22.45,50.5134,80.18,12,41.6936,38.4864,0,3.56,94.343,0,24,24,136.197,41.613
601,30.97,17.41,1.03,36.77,9.01,0.69,0.46,1.82,0,0,0,0,0,0,0,0,356.36,0,0,0,1284.29,467.12,96.216,64.144,0,0,96.216,0.09,0.28,0.63,8.66,26.94,60.61608,64.144,12,33.35488,30.78912,0,3.56,96.10696,0,24,24,127.229,57.826
602,30.97,17.41,1.03,36.77,9.01,0.69,0.46,1.82,0,0,0,0,0,0,0,0,356.36,0,0,0,1284.29,467.12,106.907,53.4533,0,0,106.907,0.09,0.28,0.63,9.62,29.93,67.3512,53.4533,12,27.7957,25.6576,0,3.56,97.2829,0,24,24,121.251,57.9081
603,30.97,17.41,1.03,36.77,9.01,0.69,0.46,1.82,0,0,0,0,0,0,0,0,356.36,0,0,0,1284.29,467.12,80.18,80.18,0,0,80.18,0.09,0.28,0.63,7.22,22.45,50.5134,80.18,14,35.2792,44.9008,0,3.56,87.9286,0,24,24,148.48,48.0408
604,30.97,17.41,1.03,36.77,9.01,0.69,0.46,1.82,0,0,0,0,0,0,0,0,356.36,0,0,0,1284.29,467.12,96.216,64.144,0,0,96.216,0.09,0.28,0.63,8.66,26.94,60.61608,64.144,14,28.22336,35.92064,0,3.56,90.97544,0,24,24,137.056,60.9902
605,30.97,17.41,1.03,36.77,9.01,0.69,0.46,1.82,0,0,0,0,0,0,0,0,356.36,0,0,0,1284.29,467.12,106.907,53.4533,0,0,106.907,0.09,0.28,0.63,9.62,29.93,67.3512,53.4533,14,23.5195,29.9339,0,3.56,93.0067,0,24,24,129.44,58.6075
734,61.3,29.4,3.27,1.21,0.75,0.73,1.2,0.003,0.01,0,0,0,0,0.45,0,350,0,0,0,0,1167,777,88.39,88.39,0,1.53,88.39,0.137,0.294,0.57,12.11,25.99,50.29391,88.39,10,53.034,35.356,0,0,103.328,1,60,24,132.717,21.3
735,61.3,29.4,3.27,1.21,0.75,0.73,1.2,0.003,0.01,0,0,0,0,0.45,0,350,0,0,0,0,1167,777,118.09,59.22,0,1.53,59.22,0.137,0.294,0.57,8.11,17.41,33.69618,118.09,10,70.854,47.236,0,0,104.55,1,60,24,166.159,30.3
736,61.3,29.4,3.27,1.21,0.75,0.73,1.2,0.003,0.01,0,0,0,0,0.45,0,350,0,0,0,0,1167,777,133.18,44.39,0,1.53,44.39,0.137,0.294,0.57,6.08,13.05,25.25791,133.18,10,79.908,53.272,0,0,105.166,1,60,24,183.15,31.1
737,61.3,29.4,3.27,1.21,0.75,0.73,1.2,0.003,0.01,0,0,0,0,0.45,0,350,0,0,0,0,1167,777,88.39,88.39,0,1.53,88.39,0.137,0.294,0.57,12.11,25.99,50.29391,88.39,14,38.8916,49.4984,0,0,89.18551,1,60,24,159.799,27.3
738,61.3,29.4,3.27,1.21,0.75,0.73,1.2,0.003,0.01,0,0,0,0,0.45,0,350,0,0,0,0,1167,777,118.09,59.22,0,1.53,59.22,0.137,0.294,0.57,8.11,17.41,33.69618,118.09,14,51.9596,66.1304,0,0,85.65578,1,60,24,202.342,33.2
739,61.3,29.4,3.27,1.21,0.75,0.73,1.2,0.003,0.01,0,0,0,0,0.45,0,350,0,0,0,0,1167,777,133.18,44.39,0,1.53,44.39,0.137,0.294,0.57,6.08,13.05,25.25791,133.18,14,58.5992,74.5808,0,0,83.85711,1,60,24,223.957,34.9
740,61.3,29.4,3.27,1.21,0.75,0.73,1.2,0.003,0.01,0,0,0,0,0.45,0,350,0,0,0,0,1167,777,88.39,88.39,0,1.53,88.39,0.137,0.294,0.57,12.11,25.99,50.29391,88.39,16,31.8204,56.5696,0,0,82.11431,1,60,24,173.341,28.2
741,61.3,29.4,3.27,1.21,0.75,0.73,1.2,0.003,0.01,0,0,0,0,0.45,0,350,0,0,0,0,1167,777,118.09,59.22,0,1.53,59.22,0.137,0.294,0.57,8.11,17.41,33.69618,118.09,16,42.5124,75.5776,0,0,76.20858,1,60,24,220.433,34.3
742,61.3,29.4,3.27,1.21,0.75,0.73,1.2,0.003,0.01,0,0,0,0,0.45,0,350,0,0,0,0,1167,777,133.18,44.39,0,1.53,44.39,0.137,0.294,0.57,6.08,13.05,25.25791,133.18,16,47.9448,85.2352,0,0,73.20271,1,60,24,244.36,35.2
743,61.3,29.4,3.27,1.21,0.75,0.73,1.2,0.003,0.01,0,0,0,0,0.45,0,450,0,0,0,0,1051,700,112.58,112.58,0,1.53,88.39,0.137,0.294,0.57,12.11,25.99,50.29391,88.39,10,53.034,35.356,0,0,103.328,1,60,24,140.899,30.1
744,61.3,29.4,3.27,1.21,0.75,0.73,1.2,0.003,0.01,0,0,0,0,0.45,0,450,0,0,0,0,1051,700,150.52,75.48,0,1.53,59.22,0.137,0.294,0.57,8.11,17.41,33.69618,118.09,10,70.854,47.236,0,0,104.55,1,60,24,177.307,36.1
745,61.3,29.4,3.27,1.21,0.75,0.73,1.2,0.003,0.01,0,0,0,0,0.45,0,450,0,0,0,0,1051,700,169.83,56.61,0,1.53,44.39,0.137,0.294,0.57,6.08,13.05,25.25791,133.18,10,79.908,53.272,0,0,105.166,1,60,24,195.818,37.3
746,61.3,29.4,3.27,1.21,0.75,0.73,1.2,0.003,0.01,0,0,0,0,0.45,0,450,0,0,0,0,1051,700,112.58,112.58,0,1.53,88.39,0.137,0.294,0.57,12.11,25.99,50.29391,88.39,14,38.8916,49.4984,0,0,89.18551,1,60,24,167.981,33.8
747,61.3,29.4,3.27,1.21,0.75,0.73,1.2,0.003,0.01,0,0,0,0,0.45,0,450,0,0,0,0,1051,700,150.52,75.48,0,1.53,59.22,0.137,0.294,0.57,8.11,17.41,33.69618,118.09,14,51.9596,66.1304,0,0,85.65578,1,60,24,213.49,40.5
748,61.3,29.4,3.27,1.21,0.75,0.73,1.2,0.003,0.01,0,0,0,0,0.45,0,450,0,0,0,0,1051,700,169.83,56.61,0,1.53,44.39,0.137,0.294,0.57,6.08,13.05,25.25791,133.18,14,58.5992,74.5808,0,0,83.85711,1,60,24,236.624,40.9
749,61.3,29.4,3.27,1.21,0.75,0.73,1.2,0.003,0.01,0,0,0,0,0.45,0,450,0,0,0,0,1051,700,112.58,112.58,0,1.53,88.39,0.137,0.294,0.57,12.11,25.99,50.29391,88.39,16,31.8204,56.5696,0,0,82.11431,1,60,24,181.523,35.1
750,61.3,29.4,3.27,1.21,0.75,0.73,1.2,0.003,0.01,0,0,0,0,0.45,0,450,0,0,0,0,1051,700,150.52,75.48,0,1.53,59.22,0.137,0.294,0.57,8.11,17.41,33.69618,118.09,16,42.5124,75.5776,0,0,76.20858,1,60,24,231.581,41.1
751,61.3,29.4,3.27,1.21,0.75,0.73,1.2,0.003,0.01,0,0,0,0,0.45,0,450,0,0,0,0,1051,700,169.83,56.61,0,1.53,44.39,0.137,0.294,0.57,6.08,13.05,25.25791,133.18,16,47.9448,85.2352,0,0,73.20271,1,60,24,257.027,42.1
752,61.3,29.4,3.27,1.21,0.75,0.73,1.2,0.003,0.01,0,0,0,0,0.45,0,350,0,0,0,0,1167,777,118.09,59.22,0,1.53,59.22,0.137,0.294,0.57,8.11,17.41,33.69618,118.09,10,70.854,47.236,0,0,104.55,0.333333,60,24,151.187,13.8
753,61.3,29.4,3.27,1.21,0.75,0.73,1.2,0.003,0.01,0,0,0,0,0.45,0,350,0,0,0,0,1167,777,118.09,59.22,0,1.53,59.22,0.137,0.294,0.57,8.11,17.41,33.69618,118.09,14,51.9596,66.1304,0,0,85.65578,0.333333,60,24,187.369,19.6
754,61.3,29.4,3.27,1.21,0.75,0.73,1.2,0.003,0.01,0,0,0,0,0.45,0,350,0,0,0,0,1167,777,118.09,59.22,0,1.53,59.22,0.137,0.294,0.57,8.11,17.41,33.69618,118.09,16,42.5124,75.5776,0,0,76.20858,0.333333,60,24,205.461,19.2
755,61.3,29.4,3.27,1.21,0.75,0.73,1.2,0.003,0.01,0,0,0,0,0.45,0,450,0,0,0,0,1051,700,150.52,75.48,0,1.53,59.22,0.137,0.294,0.57,8.11,17.41,33.69618,118.09,10,70.854,47.236,0,0,104.55,0.333333,60,24,162.335,22.4
756,61.3,29.4,3.27,1.21,0.75,0.73,1.2,0.003,0.01,0,0,0,0,0.45,0,450,0,0,0,0,1051,700,150.52,75.48,0,1.53,59.22,0.137,0.294,0.57,8.11,17.41,33.69618,118.09,14,51.9596,66.1304,0,0,85.65578,0.333333,60,24,198.518,23.5
757,61.3,29.4,3.27,1.21,0.75,0.73,1.2,0.003,0.01,0,0,0,0,0.45,0,450,0,0,0,0,1051,700,150.52,75.48,0,1.53,59.22,0.137,0.294,0.57,8.11,17.41,33.69618,118.09,16,42.5124,75.5776,0,0,76.20858,0.333333,60,24,216.609,24.6
761,33.073,20.269,0.987,33.102,8.112,0.631,0.417,1.638,0,0,0,0,0,0,0,0,360,0,40,0,1024,524,156.25,62.86,0,0,156.25,0.09,0.28,0.63,14.06,43.75,98.4375,62.86,10,37.716,25.144,0,0,136.1535,0,25,24,143.751,39.2516
762,33.073,20.269,0.987,33.102,8.112,0.631,0.417,1.638,0,0,0,0,0,0,0,0,360,0,40,0,1024,524,156.25,62.86,0,0,156.25,0.09,0.28,0.63,14.06,43.75,98.4375,62.86,12,32.6872,30.1728,0,0,131.1247,0,25,24,153.381,40.2539
763,33.073,20.269,0.987,33.102,8.112,0.631,0.417,1.638,0,0,0,0,0,0,0,0,360,0,40,0,1024,524,156.25,62.86,0,0,156.25,0.09,0.28,0.63,14.06,43.75,98.4375,62.86,14,27.6584,35.2016,0,0,126.0959,0,25,24,163.011,43.2045
764,35.176,23.128,0.944,29.434,7.214,0.572,0.374,1.456,0,0,0,0,0,0,0,0,320,0,80,0,1024,524,156.25,62.86,0,0,156.25,0.09,0.28,0.63,14.06,43.75,98.4375,62.86,10,37.716,25.144,0,0,136.1535,0,25,24,154.871,44.5587
765,35.176,23.128,0.944,29.434,7.214,0.572,0.374,1.456,0,0,0,0,0,0,0,0,320,0,80,0,1024,524,156.25,62.86,0,0,156.25,0.09,0.28,0.63,14.06,43.75,98.4375,62.86,12,32.6872,30.1728,0,0,131.1247,0,25,24,164.501,40.8386
766,35.176,23.128,0.944,29.434,7.214,0.572,0.374,1.456,0,0,0,0,0,0,0,0,320,0,80,0,1024,524,156.25,62.86,0,0,156.25,0.09,0.28,0.63,14.06,43.75,98.4375,62.86,14,27.6584,35.2016,0,0,126.0959,0,25,24,174.131,45.644
767,37.279,25.987,0.901,25.766,6.316,0.513,0.331,1.274,0,0,0,0,0,0,0,0,280,0,120,0,1024,524,156.25,62.86,0,0,156.25,0.09,0.28,0.63,14.06,43.75,98.4375,62.86,10,37.716,25.144,0,0,136.1535,0,25,24,165.991,49.881
768,37.279,25.987,0.901,25.766,6.316,0.513,0.331,1.274,0,0,0,0,0,0,0,0,280,0,120,0,1024,524,156.25,62.86,0,0,156.25,0.09,0.28,0.63,14.06,43.75,98.4375,62.86,12,32.6872,30.1728,0,0,131.1247,0,25,24,175.621,40.3165
769,37.279,25.987,0.901,25.766,6.316,0.513,0.331,1.274,0,0,0,0,0,0,0,0,280,0,120,0,1024,524,156.25,62.86,0,0,156.25,0.09,0.28,0.63,14.06,43.75,98.4375,62.86,14,27.6584,35.2016,0,0,126.0959,0,25,24,185.251,42.2938
806,48.105,22.12,1.792,17.74,3.895,0,0,1.025,0.25,0,0,0,0,1.195,0,204.5,204.5,0,0,0,1290,549,102,41,0,0,102,0.137,0.294,0.57,13.97,29.99,58.038,41,10,24.6,16.4,55,0,137.638,0,25,24,88.4052,40
807,56.8739,25.0672,2.39748,9.34954,2.44396,0,0,0.611491,0.375306,0,0,0,0,0.741394,0,307,102,0,0,0,1290,549,102,41,0,0,102,0.137,0.294,0.57,13.97,29.99,58.038,41,10,24.6,16.4,55,0,137.638,0,25,24,83.4852,21.3
808,65.6,28,3,1,1,0,0,0.2,0.5,0,0,0,0,0.29,0,409,0,0,0,0,1290,549,102,41,0,0,102,0.137,0.294,0.57,13.97,29.99,58.038,41,10,24.6,16.4,55,0,137.638,0,25,24,78.5892,10.1
847,40.17,13.86,15.16,9.7,9.57,3.66,1.53,0.09,0,0,0,0,0,4.75,0,0,0,0,0,410,740,1110,103,41,2.13,1.53,103,0.11,0.29,0.6,11.33,29.87,61.8,41,14,18.04,22.96,101,12.3,188.22,0,25,24,113.0524,18.5
848,40.17,13.86,15.16,9.7,9.57,3.66,1.53,0.09,0,0,0,0,0,4.75,0,0,0,0,0,410,740,1110,103,41,2.13,1.53,103,0.11,0.29,0.6,11.33,29.87,61.8,41,14,18.04,22.96,124,12.3,211.22,0,25,24,113.0524,14.1
849,40.17,13.86,15.16,9.7,9.57,3.66,1.53,0.09,0,0,0,0,0,4.75,0,0,0,0,0,410,740,1110,103,41,2.13,1.53,103,0.11,0.29,0.6,11.33,29.87,61.8,41,14,18.04,22.96,148,12.3,235.22,0,25,24,113.0524,10.6
850,40.17,13.86,15.16,9.7,9.57,3.66,1.53,0.09,0,0,0,0,0,4.75,0,0,0,0,0,410,740,1110,103,41,2.13,1.53,103,0.11,0.29,0.6,11.33,29.87,61.8,41,14,18.04,22.96,101,16.4,190.68,0,25,24,120.7604,17.8
851,40.17,13.86,15.16,9.7,9.57,3.66,1.53,0.09,0,0,0,0,0,4.75,0,0,0,0,0,410,740,1110,41,103,2.13,1.53,41,0.11,0.29,0.6,4.51,11.89,24.6,103,14,45.32,57.68,101,16.4,180.76,0,25,24,164.9292,10.1
852,40.17,13.86,15.16,9.7,9.57,3.66,1.53,0.09,0,0,0,0,0,4.75,0,0,0,0,0,410,740,1110,103,41,2.13,1.53,103,0.11,0.29,0.6,11.33,29.87,61.8,41,12,21.32,19.68,98,16.4,190.96,0,25,24,114.4792,15.3
853,40.17,13.86,15.16,9.7,9.57,3.66,1.53,0.09,0,0,0,0,0,4.75,0,0,0,0,0,410,740,1110,103,41,2.13,1.53,103,0.11,0.29,0.6,11.33,29.87,61.8,41,10,24.6,16.4,95,16.4,191.24,0,25,24,108.198,13.4
854,40.17,13.86,15.16,9.7,9.57,3.66,1.53,0.09,0,0,0,0,0,4.75,0,0,0,0,0,410,740,1110,41,103,2.13,1.53,41,0.11,0.29,0.6,4.51,11.89,24.6,103,12,53.56,49.44,94,12.3,179.54,0,25,24,141.4416,8.9
855,40.17,13.86,15.16,9.7,9.57,3.66,1.53,0.09,0,0,0,0,0,4.75,0,0,0,0,0,410,740,1110,41,103,2.13,1.53,41,0.11,0.29,0.6,4.51,11.89,24.6,103,10,61.8,41.2,87,12.3,180.78,0,25,24,125.662,6.2
856,40.17,13.86,15.16,9.7,9.57,3.66,1.53,0.09,0,0,0,0,0,4.75,0,0,0,0,0,410,740,1110,103,41,2.13,1.53,103,0.11,0.29,0.6,11.33,29.87,61.8,41,14,18.04,22.96,101,20.5,193.14,0,25,24,128.4684,16.2
857,40.17,13.86,15.16,9.7,9.57,3.66,1.53,0.09,0,0,0,0,0,4.75,0,0,0,0,0,410,740,1110,103,41,2.13,1.53,103,0.11,0.29,0.6,11.33,29.87,61.8,41,14,18.04,22.96,101,24.6,195.6,0,25,24,136.1764,13.3
858,40.17,13.86,15.16,9.7,9.57,3.66,1.53,0.09,0,0,0,0,0,4.75,0,0,0,0,0,410,740,1110,96,48,2.13,1.53,96,0.11,0.29,0.6,10.56,27.84,57.6,48,14,21.12,26.88,101,12.3,187.1,0,25,24,118.0392,14
859,40.17,13.86,15.16,9.7,9.57,3.66,1.53,0.09,0,0,0,0,0,4.75,0,0,0,0,0,410,740,1110,108,36,2.13,1.53,108,0.11,0.29,0.6,11.88,31.32,64.8,36,14,15.84,20.16,101,12.3,189.02,0,25,24,109.4904,19.1
860,40.17,13.86,15.16,9.7,9.57,3.66,1.53,0.09,0,0,0,0,0,4.75,0,0,0,0,0,410,740,1110,117,47,2.13,1.53,117,0.11,0.29,0.6,12.87,33.93,70.2,47,14,20.68,26.32,92,12.3,190.26,0,25,24,124.5268,18.8
861,40.17,13.86,15.16,9.7,9.57,3.66,1.53,0.09,0,0,0,0,0,4.75,0,0,0,0,0,410,740,1110,132,53,2.13,1.53,132,0.11,0.29,0.6,14.52,38.28,79.2,53,14,23.32,29.68,83,12.3,192.9,0,25,24,136.3612,21.1
862,40.17,13.86,15.16,9.7,9.57,3.66,1.53,0.09,0,0,0,0,0,4.75,0,0,0,0,0,410,740,1110,146.5,58.5,2.13,1.53,146.5,0.11,0.29,0.6,16.12,42.49,87.9,58.5,14,25.74,32.76,74,12.3,195.02,0,25,24,147.4794,17.3
863,40.17,13.86,15.16,9.7,9.57,3.66,1.53,0.09,0,0,0,0,0,4.75,0,0,0,0,0,410,740,1110,88,35,2.13,1.53,88,0.11,0.29,0.6,9.68,25.52,52.8,35,14,15.4,19.6,110,12.3,185.58,0,25,24,101.218,14.1
875,32.62,31.23,8.48,17.12,3.49,0.91,0.1,0,1.65,0,0,0,0,0.93,0,444,0,0,0,0,1260,540,111,45,0,0,111,0.147,0.294,0.56,16.32,32.63,62.049,45,8,30.6,14.4,36,5.8,132.129,0,25,24,88.856,6.4726
876,32.62,31.23,8.48,17.12,3.49,0.91,0.1,0,1.65,0,0,0,0,0.93,0,414,0,0,0,0,1260,540,133,53,0,0,133,0.147,0.294,0.56,19.55,39.1,74.347,53,8,36.04,16.96,14,5.8,127.867,0,25,24,101.5584,19.3007
877,32.62,31.23,8.48,17.12,3.49,0.91,0.1,0,1.65,0,0,0,0,0.93,0,444,0,0,0,0,1260,540,111,45,0,0,111,0.147,0.294,0.56,16.32,32.63,62.049,45,12,23.4,21.6,36,5.8,124.929,0,25,24,102.644,14.863
878,32.62,31.23,8.48,17.12,3.49,0.91,0.1,0,1.65,0,0,0,0,0.93,0,414,0,0,0,0,1260,540,133,53,0,0,133,0.147,0.294,0.56,19.55,39.1,74.347,53,12,27.56,25.44,14,5.8,119.387,0,25,24,117.7976,17.8322
879,32.62,31.23,8.48,17.12,3.49,0.91,0.1,0,1.65,0,0,0,0,0.93,0,414,0,0,0,0,1260,540,133,53,0,0,133,0.147,0.294,0.56,19.55,39.1,74.347,53,8,36.04,16.96,14,5.8,127.867,1,60,24,124.017,13.6525
1021,39.8065,17.9952,5.62716,18.8643,3.57837,0.954125,2.82354,1.24467,0.897704,0.101868,0.0520233,0.234358,0,3.10109,0,308,206,0,0,0,935,615,121,99,0,0,121,0.128,0.255,0.62,15.49,30.86,74.657,99,10,59.4,39.6,75,0,209.057,0,25,24,138.778,41.8
1022,39.82,18.004,5.634,18.832,3.574,0.954,2.826,1.244,0.898,0.102,0.052,0.234,0,3.102,0,270,180,0,0,0,1030,670,106,87,0,0,106,0.128,0.255,0.62,13.57,27.03,65.402,87,10,52.2,34.8,65,0,182.602,0,25,24,123.402,49
1023,39.82,18.004,5.634,18.832,3.574,0.954,2.826,1.244,0.898,0.102,0.052,0.234,0,3.102,0,240,160,0,0,0,1110,720,94,77,0,0,94,0.128,0.255,0.62,12.03,23.97,57.998,77,10,46.2,30.8,55,0,159.198,0,25,24,110.886,44.9
1024,39.82,18.004,5.634,18.832,3.574,0.954,2.826,1.244,0.898,0.102,0.052,0.234,0,3.102,0,210,140,0,0,0,1170,760,82,68,0,0,82,0.128,0.255,0.62,10.5,20.91,50.594,68,10,40.8,27.2,50,0,141.394,0,25,24,98.992,35.1
1025,39.82,18.004,5.634,18.832,3.574,0.954,2.826,1.244,0.898,0.102,0.052,0.234,0,3.102,0,210,140,0,0,0,1155,750,82,68,0,0,82,0.128,0.255,0.62,10.5,20.91,50.594,68,10,40.8,27.2,60,0,151.394,0,25,24,98.872,38.5
1026,39.82,18.004,5.634,18.832,3.574,0.954,2.826,1.244,0.898,0.102,0.052,0.234,0,3.102,0,240,160,0,0,0,1070,710,94,77,0,0,94,0.128,0.255,0.62,12.03,23.97,57.998,77,10,46.2,30.8,70,0,174.198,0,25,24,110.646,42.3
1027,39.82,18.004,5.634,18.832,3.574,0.954,2.826,1.244,0.898,0.102,0.052,0.234,0,3.102,0,270,180,0,0,0,1050,690,106,87,0,0,106,0.128,0.255,0.62,13.57,27.03,65.402,87,10,52.2,34.8,50,0,167.602,0,25,24,123.594,47
1028,39.82,18.004,5.634,18.832,3.574,0.954,2.826,1.244,0.898,0.102,0.052,0.234,0,3.102,0,210,140,0,0,0,1120,730,83,67,0,0,83,0.128,0.255,0.62,10.62,21.17,51.211,67,10,40.2,26.8,80,0,171.411,0,25,24,98.202,33.2
1029,39.8287,18.0097,5.63842,18.8112,3.57118,0.95392,2.82759,1.24357,0.898191,0.102085,0.0519849,0.233769,0,3.10259,0,239,159,0,0,0,1111,721,94,77,0,0,94,0.128,0.255,0.62,12.03,23.97,57.998,77,10,46.2,30.8,52,0,156.198,0,25,24,110.8396,40.1
1030,39.8291,18.0099,5.63859,18.8103,3.57107,0.953916,2.82765,1.24355,0.898198,0.102089,0.0519843,0.23376,0,3.10261,0,230,153,0,0,0,1111,721,90,74,0,0,90,0.128,0.255,0.62,11.52,22.95,55.53,74,10,44.4,29.6,63,0,162.93,0,25,24,106.7536,36.9
1031,39.8292,18.01,5.63865,18.8101,3.57103,0.953915,2.82767,1.24354,0.898201,0.10209,0.0519841,0.233757,0,3.10262,0,227,151,0,0,0,1111,721,89,73,0,0,89,0.128,0.255,0.62,11.39,22.7,54.913,73,10,43.8,29.2,66,0,164.713,0,25,24,105.5116,38.4
1032,39.8296,18.0102,5.63884,18.8091,3.57091,0.953912,2.82774,1.24353,0.898209,0.102094,0.0519835,0.233747,0,3.10264,0,218,145,0,0,0,1111,721,86,70,0,0,86,0.128,0.255,0.62,11.01,21.93,53.062,70,10,42,28,76,0,171.062,0,25,24,101.7856,33.3
1033,39.82,18.004,5.634,18.832,3.574,0.954,2.826,1.244,0.898,0.102,0.052,0.234,0,3.102,0,219,146,0,0,0,1145,742,86,70,0,0,86,0.128,0.255,0.62,11.01,21.93,53.062,70,10,42,28,56,0,151.062,0,25,24,102.1056,41.1
1034,39.82,18.004,5.634,18.832,3.574,0.954,2.826,1.244,0.898,0.102,0.052,0.234,0,3.102,0,216,144,0,0,0,1145,742,85,69,0,0,85,0.128,0.255,0.62,10.88,21.68,52.445,69,10,41.4,27.6,59,0,152.845,0,25,24,100.8636,41.6
1035,39.82,18.004,5.634,18.832,3.574,0.954,2.826,1.244,0.898,0.102,0.052,0.234,0,3.102,0,213,142,0,0,0,1145,742,84,69,0,0,84,0.128,0.255,0.62,10.75,21.42,51.828,69,10,41.4,27.6,62,0,155.228,0,25,24,100.3876,37.4
1036,39.83,18.0105,5.63905,18.8082,3.57078,0.953908,2.82782,1.24351,0.898218,0.102098,0.0519828,0.233736,0,3.10267,0,209,139,0,0,0,1160,753,82,67,0,0,82,0.128,0.255,0.62,10.5,20.91,50.594,67,10,40.2,26.8,57,0,147.794,0,25,24,98.0884,39.8
1037,39.7995,17.9907,5.62363,18.8809,3.58062,0.954189,2.82227,1.24501,0.897552,0.101799,0.0520354,0.234543,0,3.10062,0,203,136,0,0,0,1160,753,80,65,0,0,80,0.128,0.255,0.62,10.24,20.4,49.36,65,10,39,26,63,0,151.36,0,25,24,95.6564,37
1038,39.82,18.004,5.634,18.832,3.574,0.954,2.826,1.244,0.898,0.102,0.052,0.234,0,3.102,0,198,132,0,0,0,1160,753,78,64,0,0,78,0.128,0.255,0.62,9.98,19.89,48.126,64,10,38.4,25.6,69,0,155.526,0,25,24,93.9424,22.3
1231,46.78,22.52,9.15,2.24,1.33,0.89,4.09,0.9,1.05,0.17,0,0,0.05,3.57,0,391,0,0,0,0,1111,721,92,75,0,0,92,0.128,0.255,0.62,11.78,23.46,56.764,75,7.5,52.5,22.5,0,0,109.264,28,70,65,895.0651,22.5717
1232,46.78,22.52,9.15,2.24,1.33,0.89,4.09,0.9,1.05,0.17,0,0,0.05,3.57,0,380,0,0,0,0,1111,721,89,73,0,0,89,0.128,0.255,0.62,11.39,22.7,54.913,73,7.5,51.1,21.9,0,0,106.013,28,70,65,892.7921,15.4909
1233,46.78,22.52,9.15,2.24,1.33,0.89,4.09,0.9,1.05,0.17,0,0,0.05,3.57,0,371,0,0,0,0,1111,721,87,72,0,0,87,0.128,0.255,0.62,11.14,22.19,53.679,72,7.5,50.4,21.6,0,0,104.079,28,70,65,891.4616,12.8526
1234,46.78,22.52,9.15,2.24,1.33,0.89,4.09,0.9,1.05,0.17,0,0,0.05,3.57,0,367,0,0,0,0,1145,742,86,71,0,0,86,0.128,0.255,0.62,11.01,21.93,53.062,71,7.5,49.7,21.3,0,0,102.762,28,70,65,890.7751,21.0857
1235,46.78,22.52,9.15,2.24,1.33,0.89,4.09,0.9,1.05,0.17,0,0,0.05,3.57,0,357,0,0,0,0,1145,742,84,69,0,0,84,0.128,0.255,0.62,10.75,21.42,51.828,69,7.5,48.3,20.7,0,0,100.128,28,70,65,888.8661,14.7438
1236,46.78,22.52,9.15,2.24,1.33,0.89,4.09,0.9,1.05,0.17,0,0,0.05,3.57,0,348,0,0,0,0,1145,742,82,67,0,0,82,0.128,0.255,0.62,10.5,20.91,50.594,67,7.5,46.9,20.1,0,0,97.494,28,70,65,886.9611,13.2147
1237,46.78,22.52,9.15,2.24,1.33,0.89,4.09,0.9,1.05,0.17,0,0,0.05,3.57,0,355,0,0,0,0,1160,753,84,69,0,0,84,0.128,0.255,0.62,10.75,21.42,51.828,69,7.5,48.3,20.7,0,0,100.128,28,70,65,888.9829,18.8496
1238,46.78,22.52,9.15,2.24,1.33,0.89,4.09,0.9,1.05,0.17,0,0,0.05,3.57,0,346,0,0,0,0,1160,753,81,67,0,0,81,0.128,0.255,0.62,10.37,20.66,49.977,67,7.5,46.9,20.1,0,0,96.877,28,70,65,886.7179,15.0983
1239,46.78,22.52,9.15,2.24,1.33,0.89,4.09,0.9,1.05,0.17,0,0,0.05,3.57,0,337,0,0,0,0,1160,753,79,65,0,0,79,0.128,0.255,0.62,10.11,20.15,48.743,65,7.5,45.5,19.5,0,0,94.243,28,70,65,884.8129,13.2046
1240,43.3175,20.2734,7.40086,10.4942,2.44635,0.921839,3.46118,1.07113,0.974383,0.136171,0,0,0.141537,3.33718,0,318,79,0,0,0,1111,721,93,77,0,0,93,0.128,0.255,0.62,11.9,23.72,57.381,77,7.5,53.9,23.1,0,0,111.281,0,20,24,91.8901,24.0438
1241,43.309,20.2678,7.39655,10.5145,2.44909,0.921917,3.45964,1.07155,0.974197,0.136088,0,0,0.141762,3.33661,0,309,77,0,0,0,1111,721,91,75,0,0,91,0.128,0.255,0.62,11.65,23.21,56.147,75,7.5,52.5,22.5,0,0,108.647,0,20,24,89.8811,23.6128
1242,43.3093,20.268,7.39668,10.5139,2.44902,0.921915,3.45968,1.07154,0.974202,0.13609,0,0,0.141755,3.33662,0,301,75,0,0,0,1111,721,89,73,0,0,89,0.128,0.255,0.62,11.39,22.7,54.913,73,7.5,51.1,21.9,0,0,106.013,0,20,24,87.8761,21.7029
1243,43.319,20.2743,7.40158,10.4908,2.44589,0.921826,3.46144,1.07106,0.974414,0.136185,0,0,0.141499,3.33728,0,294,73,0,0,0,1111,721,86,71,0,0,86,0.128,0.255,0.62,11.01,21.93,53.062,71,7.5,49.7,21.3,0,0,102.762,0,20,24,85.5151,18.3116
1244,43.2904,20.2558,7.38717,10.5588,2.45508,0.922088,3.45626,1.07247,0.973791,0.135907,0,0,0.142253,3.33536,0,291,73,0,0,0,1145,742,85,70,0,0,85,0.128,0.255,0.62,10.88,21.68,52.445,70,7.5,49,21,0,0,101.445,0,20,24,84.8326,23.8589
1245,43.2902,20.2556,7.38703,10.5594,2.45517,0.92209,3.45621,1.07249,0.973785,0.135904,0,0,0.14226,3.33534,0,283,71,0,0,0,1145,742,83,68,0,0,83,0.128,0.255,0.62,10.62,21.17,51.211,68,7.5,47.6,20.4,0,0,98.811,0,20,24,82.8276,20.8303
1246,43.3,20.262,7.392,10.536,2.452,0.922,3.458,1.072,0.974,0.136,0,0,0.142,3.336,0,276,69,0,0,0,1145,742,81,67,0,0,81,0.128,0.255,0.62,10.37,20.66,49.977,67,7.5,46.9,20.1,0,0,96.877,0,20,24,81.4011,17.4339
1247,43.3096,20.2683,7.39687,10.513,2.44889,0.921911,3.45975,1.07152,0.974211,0.136094,0,0,0.141745,3.33665,0,289,72,0,0,0,1160,753,85,70,0,0,85,0.128,0.255,0.62,10.88,21.68,52.445,70,7.5,49,21,0,0,101.445,0,20,24,84.8974,22.291
1248,43.3099,20.2684,7.39701,10.5124,2.4488,0.921909,3.4598,1.07151,0.974217,0.136097,0,0,0.141738,3.33667,0,281,70,0,0,0,1160,753,83,68,0,0,83,0.128,0.255,0.62,10.62,21.17,51.211,68,7.5,47.6,20.4,0,0,98.811,0,20,24,82.8924,22.2329
1249,43.3204,20.2752,7.40228,10.4875,2.44544,0.921813,3.4617,1.07099,0.974444,0.136199,0,0,0.141462,3.33737,0,274,68,0,0,0,1160,753,81,66,0,0,81,0.128,0.255,0.62,10.37,20.66,49.977,66,7.5,46.2,19.8,0,0,96.177,0,20,24,80.8914,21.4342
1250,43.2896,20.2552,7.38674,10.5608,2.45536,0.922096,3.45611,1.07251,0.973772,0.135898,0,0,0.142275,3.3353,0,267,67,0,0,0,1160,753,79,64,0,0,79,0.128,0.255,0.62,10.11,20.15,48.743,64,7.5,44.8,19.2,0,0,93.543,0,20,24,78.9424,17.302
1251,39.8287,18.0097,5.63842,18.8112,3.57118,0.95392,2.82759,1.24357,0.898191,0.102085,0,0,0.233769,3.10259,0,239,159,0,0,0,1111,721,94,77,0,0,94,0.128,0.255,0.62,12.03,23.97,57.998,77,7.5,53.9,23.1,0,0,111.898,0,20,24,96.0941,39.6162
1252,39.8291,18.0099,5.63859,18.8103,3.57107,0.953916,2.82765,1.24355,0.898198,0.102089,0,0,0.23376,3.10261,0,230,153,0,0,0,1111,721,90,74,0,0,90,0.128,0.255,0.62,11.52,22.95,55.53,74,7.5,51.8,22.2,0,0,107.33,0,20,24,92.5826,36.3328
1253,39.8292,18.01,5.63865,18.8101,3.57103,0.953915,2.82767,1.24354,0.898201,0.10209,0,0,0.233757,3.10262,0,227,151,0,0,0,1111,721,89,73,0,0,89,0.128,0.255,0.62,11.39,22.7,54.913,73,7.5,51.1,21.9,0,0,106.013,0,20,24,91.5321,38.018
1254,39.8296,18.0102,5.63884,18.8091,3.57091,0.953912,2.82774,1.24353,0.898209,0.102094,0,0,0.233747,3.10264,0,218,145,0,0,0,1111,721,86,70,0,0,86,0.128,0.255,0.62,11.01,21.93,53.062,70,7.5,49,21,0,0,102.062,0,20,24,88.3806,32.6513
1255,39.82,18.004,5.634,18.832,3.574,0.954,2.826,1.244,0.898,0.102,0,0,0.234,3.102,0,219,146,0,0,0,1145,742,86,70,0,0,86,0.128,0.255,0.62,11.01,21.93,53.062,70,7.5,49,21,0,0,102.062,0,20,24,88.7006,40.3496
1256,39.82,18.004,5.634,18.832,3.574,0.954,2.826,1.244,0.898,0.102,0,0,0.234,3.102,0,216,144,0,0,0,1145,742,85,69,0,0,85,0.128,0.255,0.62,10.88,21.68,52.445,69,7.5,48.3,20.7,0,0,100.745,0,20,24,87.6501,41.2015
1257,39.82,18.004,5.634,18.832,3.574,0.954,2.826,1.244,0.898,0.102,0,0,0.234,3.102,0,213,142,0,0,0,1145,742,84,69,0,0,84,0.128,0.255,0.62,10.75,21.42,51.828,69,7.5,48.3,20.7,0,0,100.128,0,20,24,87.1741,37.0519
1258,39.83,18.0105,5.63905,18.8082,3.57078,0.953908,2.82782,1.24351,0.898218,0.102098,0,0,0.233736,3.10267,0,209,139,0,0,0,1160,753,82,67,0,0,82,0.128,0.255,0.62,10.5,20.91,50.594,67,7.5,46.9,20.1,0,0,97.494,0,20,24,85.2579,39.8202
1259,39.7995,17.9907,5.62363,18.8809,3.58062,0.954189,2.82227,1.24501,0.897552,0.101799,0,0,0.234543,3.10062,0,203,136,0,0,0,1160,753,80,65,0,0,80,0.128,0.255,0.62,10.24,20.4,49.36,65,7.5,45.5,19.5,0,0,94.86,0,20,24,83.2089,37.353
1260,39.82,18.004,5.634,18.832,3.574,0.954,2.826,1.244,0.898,0.102,0,0,0.234,3.102,0,198,132,0,0,0,1160,753,78,64,0,0,78,0.128,0.255,0.62,9.98,19.89,48.126,64,7.5,44.8,19.2,0,0,92.926,0,20,24,81.6864,21.9692
1261,34.5954,14.614,2.99467,31.287,5.25849,1.00204,1.87716,1.50223,0.783899,0.0509549,0,0,0.372122,2.75069,0,113,264,0,0,0,1111,721,89,73,0,0,89,0.128,0.255,0.62,11.39,22.7,54.913,73,7.5,51.1,21.9,0,0,106.013,0,20,24,96.9521,62.5427
1262,34.6145,14.6264,3.00435,31.2413,5.25231,1.00187,1.88064,1.50128,0.784318,0.0511421,0,0,0.371616,2.75198,0,108,251,0,0,0,1111,721,84,69,0,0,84,0.128,0.255,0.62,10.75,21.42,51.828,69,7.5,48.3,20.7,0,0,100.128,0,20,24,92.1581,57.8903
1263,34.6,14.617,2.997,31.276,5.257,1.002,1.878,1.502,0.784,0.051,0,0,0.372,2.751,0,105,245,0,0,0,1111,721,82,68,0,0,82,0.128,0.255,0.62,10.5,20.91,50.594,68,7.5,47.6,20.4,0,0,98.194,0,20,24,90.5396,51.8626
1264,34.5902,14.6106,2.99203,31.2994,5.26017,1.00209,1.87621,1.50249,0.783785,0.050904,0,0,0.37226,2.75034,0,106,248,0,0,0,1145,742,83,68,0,0,83,0.128,0.255,0.62,10.62,21.17,51.211,68,7.5,47.6,20.4,0,0,98.811,0,20,24,91.3236,56.4726
1265,34.5948,14.6136,2.99439,31.2883,5.25866,1.00205,1.87706,1.50226,0.783887,0.0509496,0,0,0.372136,2.75065,0,101,236,0,0,0,1145,742,79,65,0,0,79,0.128,0.255,0.62,10.11,20.15,48.743,65,7.5,45.5,19.5,0,0,94.243,0,20,24,87.5161,54.404
1266,34.6159,14.6273,3.00502,31.2382,5.25188,1.00185,1.88088,1.50122,0.784347,0.051155,0,0,0.371581,2.75207,0,99,230,0,0,0,1145,742,77,63,0,0,77,0.128,0.255,0.62,9.86,19.64,47.509,63,7.5,44.1,18.9,0,0,91.609,0,20,24,85.3271,54.2978
1267,34.6051,14.6203,2.99956,31.2639,5.25536,1.00195,1.87892,1.50175,0.784111,0.0510496,0,0,0.371866,2.75134,0,103,240,0,0,0,1160,753,81,66,0,0,81,0.128,0.255,0.62,10.37,20.66,49.977,66,7.5,46.2,19.8,0,0,96.177,0,20,24,89.1514,58.93
1268,34.6107,14.6239,3.00239,31.2506,5.25356,1.0019,1.87994,1.50147,0.784233,0.0511043,0,0,0.371718,2.75172,0,98,228,0,0,0,1160,753,77,63,0,0,77,0.128,0.255,0.62,9.86,19.64,47.509,63,7.5,44.1,18.9,0,0,91.609,0,20,24,85.3439,55.0228
1269,34.5781,14.6028,2.98594,31.3282,5.26406,1.0022,1.87403,1.50308,0.783522,0.0507862,0,0,0.372579,2.74953,0,95,223,0,0,0,1160,753,75,61,0,0,75,0.128,0.255,0.62,9.6,19.13,46.275,61,7.5,42.7,18.3,0,0,88.975,0,20,24,83.2029,50.1018
1315,50.76,27.32,4.64,5.4,3.72,0.8,4.85,2,1.16,0,0,0,0,0,0,280,0,0,0,0,1309,561,126,84,0,0,126,0.0883,0.2764,0.64,11.13,34.83,80.0478,84,12,43.68,40.32,0,0,123.7278,0,25,24,132.6688,2.9
1316,50.76,27.32,4.64,5.4,3.72,0.8,4.85,2,1.16,0,0,0,0,0,0,280,0,0,0,0,1309,561,126,84,0,0,126,0.0883,0.2764,0.64,11.13,34.83,80.0478,84,12,43.68,40.32,0,0,123.7278,0,25,24,132.6688,2.9
1317,50.76,27.32,4.64,5.4,3.72,0.8,4.85,2,1.16,0,0,0,0,0,0,280,0,0,0,0,1309,561,126,84,0,0,126,0.0883,0.2764,0.64,11.13,34.83,80.0478,84,12,43.68,40.32,0,0,123.7278,1,80,24,167.96,40.8
1318,50.76,27.32,4.64,5.4,3.72,0.8,4.85,2,1.16,0,0,0,0,0,0,280,0,0,0,0,1309,561,126,84,0,0,126,0.0883,0.2764,0.64,11.13,34.83,80.0478,84,12,43.68,40.32,0,0,123.7278,1,80,24,167.96,42.7
1319,50.76,27.32,4.64,5.4,3.72,0.8,4.85,2,1.16,0,0,0,0,0,0,280,0,0,0,0,1309,561,126,84,0,0,126,0.0883,0.2764,0.64,11.13,34.83,80.0478,84,12,43.68,40.32,0,0,123.7278,1,80,24,167.96,45.2
1320,50.76,27.32,4.64,5.4,3.72,0.8,4.85,2,1.16,0,0,0,0,0,0,280,0,0,0,0,1309,561,126,84,0,0,126,0.0883,0.2764,0.64,11.13,34.83,80.0478,84,12,43.68,40.32,0,0,123.7278,1,80,24,167.96,44.1
1386,51.593,25.134,1.526,7.045,9.34,0.709,2.368,0.686,0.853,0,0,0,0,0,0,360,40,0,0,0,1197,644,107,53,0,0,107,0.1536,0.3071,0.54,16.44,32.86,57.7051,53,10,31.8,21.2,0,4,91.9051,0,25,20,98.9948,12.0073
1387,50.7695,24.491,1.464,8.7425,9.235,0.6835,2.267,0.749,0.8495,0,0,0,0,0,0,340,60,0,0,0,1200,646,107,53,0,0,107,0.1536,0.3071,0.54,16.44,32.86,57.7051,53,10,31.8,21.2,0,4,91.9051,0,25,20,99.9788,15.8394
1388,49.946,23.848,1.402,10.44,9.13,0.658,2.166,0.812,0.846,0,0,0,0,0,0,320,80,0,0,0,1203,646,107,53,0,0,107,0.1536,0.3071,0.54,16.44,32.86,57.7051,53,10,31.8,21.2,0,4,91.9051,0,25,20,100.9532,26.5693
1389,49.1225,23.205,1.34,12.1375,9.025,0.6325,2.065,0.875,0.8425,0,0,0,0,0,0,300,100,0,0,0,1207,650,107,53,0,0,107,0.1536,0.3071,0.54,16.44,32.86,57.7051,53,10,31.8,21.2,0,4,91.9051,0,25,20,101.9516,31.4234
1390,48.299,22.562,1.278,13.835,8.92,0.607,1.964,0.938,0.839,0,0,0,0,0,0,280,120,0,0,0,1210,652,107,53,0,0,107,0.1536,0.3071,0.54,16.44,32.86,57.7051,53,10,31.8,21.2,0,4,91.9051,0,25,20,102.9356,36.5328
1391,50.7695,24.491,1.464,8.7425,9.235,0.6835,2.267,0.749,0.8495,0,0,0,0,0,0,340,60,0,0,0,1200,646,107,53,0,0,107,0.1536,0.3071,0.54,16.44,32.86,57.7051,53,12,27.56,25.44,0,4,87.6651,0,25,20,108.0984,19.0123
1392,49.946,23.848,1.402,10.44,9.13,0.658,2.166,0.812,0.846,0,0,0,0,0,0,320,80,0,0,0,1203,648,107,53,0,0,107,0.1536,0.3071,0.54,16.44,32.86,57.7051,53,12,27.56,25.44,0,4,87.6651,0,25,20,109.0824,26.9136
1393,49.1225,23.205,1.34,12.1375,9.025,0.6325,2.065,0.875,0.8425,0,0,0,0,0,0,300,100,0,0,0,1222,658,107,53,0,0,107,0.1536,0.3071,0.54,16.44,32.86,57.7051,53,12,27.56,25.44,0,4,87.6651,0,25,20,110.1816,38.7654
1394,50.7695,24.491,1.464,8.7425,9.235,0.6835,2.267,0.749,0.8495,0,0,0,0,0,0,340,60,0,0,0,1209,651,93,47,0,0,93,0.1536,0.3071,0.54,14.28,28.56,50.1549,47,10,28.2,18.8,0,4,80.7549,0,25,20,90.41,18.3857
1395,49.946,23.848,1.402,10.44,9.13,0.658,2.166,0.812,0.846,0,0,0,0,0,0,320,80,0,0,0,1227,661,93,47,0,0,93,0.1536,0.3071,0.54,14.28,28.56,50.1549,47,10,28.2,18.8,0,4,80.7549,0,25,20,91.5044,26.8165
1396,49.1225,23.205,1.34,12.1375,9.025,0.6325,2.065,0.875,0.8425,0,0,0,0,0,0,300,100,0,0,0,1246,671,93,47,0,0,93,0.1536,0.3071,0.54,14.28,28.56,50.1549,47,10,28.2,18.8,0,4,80.7549,0,25,20,92.6036,33.4837
1397,50.7695,24.491,1.464,8.7425,9.235,0.6835,2.267,0.749,0.8495,0,0,0,0,0,0,340,60,0,0,0,1184,637,96,64,0,0,96,0.1536,0.3071,0.54,14.75,29.48,51.7728,64,10,38.4,25.6,0,4,92.5728,0,25,20,104.3248,16.8283
1398,49.1225,23.205,1.34,12.1375,9.025,0.6325,2.065,0.875,0.8425,0,0,0,0,0,0,300,100,0,0,0,1223,659,114,46,0,0,114,0.1536,0.3071,0.54,17.51,35.01,61.4802,46,10,27.6,18.4,0,4,91.4802,0,25,20,99.2296,29.2476
1718,50.76,27.32,4.64,5.4,3.72,0.8,4.85,2,1.16,0,0,0,0,0,0,280,0,0,0,0,1309,561,126,84,0,0,126,0.0883,0.2764,0.64,11.13,34.83,80.0478,84,12,43.68,40.32,0,0,123.7278,0,25,24,132.6688,2.9
1719,50.76,27.32,4.64,5.4,3.72,0.8,4.85,2,1.16,0,0,0,0,0,0,280,0,0,0,0,1309,561,126,84,0,0,126,0.0883,0.2764,0.64,11.13,34.83,80.0478,84,12,43.68,40.32,0,0,123.7278,0,25,24,132.6688,2.9
1720,50.76,27.32,4.64,5.4,3.72,0.8,4.85,2,1.16,0,0,0,0,0,0,280,0,0,0,0,1309,561,126,84,0,0,126,0.0883,0.2764,0.64,11.13,34.83,80.0478,84,12,43.68,40.32,0,0,123.7278,1,80,24,167.96,40.8
1721,50.76,27.32,4.64,5.4,3.72,0.8,4.85,2,1.16,0,0,0,0,0,0,280,0,0,0,0,1309,561,126,84,0,0,126,0.0883,0.2764,0.64,11.13,34.83,80.0478,84,12,43.68,40.32,0,0,123.7278,1,80,24,167.96,42.7
1724,49.2274,26.1356,4.543646,8.32401,3.697104,0.77615,4.641551,2.1431,1.144736,0,0,0,0,0,14,280,0,0,0,0,1309,561,126,84,0,0,126,0.0883,0.2764,0.64,11.13,34.83,80.0478,84,12,43.68,40.32,0,0,123.7278,0,25,24,144.4288,7.1
1725,49.2274,26.1356,4.543646,8.32401,3.697104,0.77615,4.641551,2.1431,1.144736,0,0,0,0,0,14,280,0,0,0,0,1309,561,126,84,0,0,126,0.0883,0.2764,0.64,11.13,34.83,80.0478,84,12,43.68,40.32,0,0,123.7278,0,25,24,144.4288,7.5
1726,49.2274,26.1356,4.543646,8.32401,3.697104,0.77615,4.641551,2.1431,1.144736,0,0,0,0,0,14,280,0,0,0,0,1309,561,126,84,0,0,126,0.0883,0.2764,0.64,11.13,34.83,80.0478,84,12,43.68,40.32,0,0,123.7278,1,80,24,179.72,46.1
1729,49.2274,26.1356,4.543646,8.32401,3.697104,0.77615,4.641551,2.1431,1.144736,0,0,0,0,0,14,280,0,0,0,0,1309,561,126,84,0,0,126,0.0883,0.2764,0.64,11.13,34.83,80.0478,84,12,43.68,40.32,0,0,123.7278,1,80,24,179.72,49.8