File: DS_cyl_100x200_2_Strength.csv
Idx_Sample,SiO2,Al2O3,Fe2O3,CaO,MgO,Na2O,K2O,SO3,TiO2,P2O5,SrO,Mn2O3,LOI,Cement (kg/m3),FA (kg/m3),GGBFS (kg/m3),SF (kg/m3),Kaolin (kg/m3),Coarse aggregate (kg/m3),Fine aggregate (kg/m3),Na2SiO3,NaOH,Na2SiO3 specific gravity,Total solution,Na2O (l),Sio2 (l),H2O,Na2O (Dry),Sio2 (Dry),Water,Total NaOH,Concentration (M) NaOH,Water,NaOH (Dry),Additional water,Superplasticizer,water -eff,Initial curing time (day),Initial curing temp (C),Mixture CO2 (Na2SiO3 as solution),7-d Cylindrical compressive strength (MPa)
133,50.3,26.3,13.6,2.27,1.44,0.36,0.55,0.32,0,1.58,0,0,0.6,0,408,0,0,0,1201,647,103,41,0,103,0.1473,0.2975,0.56,15.17,30.64,57.1856,41,14,18.04,22.96,0,6.1,78.8856,1,60,125.477,30.92
134,50.3,26.3,13.6,2.27,1.44,0.36,0.55,0.32,0,1.58,0,0,0.6,0,408,0,0,0,1201,647,103,41,0,103,0.1473,0.2975,0.56,15.17,30.64,57.1856,41,14,18.04,22.96,0,6.1,78.8856,1,60,125.477,38.32
135,50.3,26.3,13.6,2.27,1.44,0.36,0.55,0.32,0,1.58,0,0,0.6,0,408,0,0,0,1201,647,103,41,0,103,0.1473,0.2975,0.56,15.17,30.64,57.1856,41,14,18.04,22.96,0,6.1,78.8856,1,60,125.477,67.09
136,50.3,26.3,13.6,2.27,1.44,0.36,0.55,0.32,0,1.58,0,0,0.6,0,444,0,0,0,1140,630,111,44,0,103,0.1473,0.2975,0.56,15.17,30.64,57.1856,44,14,18.04,24.64,0,6.1,78.8856,1,60,131.344,45.96
137,50.3,26.3,13.6,2.27,1.44,0.36,0.55,0.32,0,1.58,0,0,0.6,0,356,0,0,0,1248,672,89,36,0,111,0.1473,0.2975,0.56,16.35,33.02,61.6272,36,14,19.36,20.16,0,6.1,84.6472,1,60,115.213,24.19
138,50.3,26.3,13.6,2.27,1.44,0.36,0.55,0.32,0,1.58,0,0,0.6,0,424,0,0,0,1201,647,91,36,0,89,0.1473,0.2975,0.56,13.11,26.48,49.4128,36,14,15.84,20.16,0,6.1,68.9128,1,60,115.859,32.45
139,50.3,26.3,13.6,2.27,1.44,0.36,0.55,0.32,0,1.58,0,0,0.6,0,381,0,0,0,1201,647,122,49,0,103,0.1473,0.2975,0.56,15.17,30.64,57.1856,49,14,18.04,27.44,0,6.1,78.8856,1,60,140.788,35.14
140,50.3,26.3,13.6,2.27,1.44,0.36,0.55,0.32,0,1.58,0,0,0.6,0,408,0,0,0,1292,554,103,41,0,91,0.1473,0.2975,0.56,13.4,27.07,50.5232,41,14,15.84,22.96,0,6.1,70.0232,1,60,125.468,32
141,33.45,13.46,0.31,41.74,5.99,0.16,0.29,2.74,0.84,0.12,0,0.4,0,0,0,419,0,0,1039,784,53,56,0,53,0.147,0.294,0.56,7.79,15.58,29.627,56,10,33.6,22.4,137,0,200.227,0,25,92.5144,25
142,33.45,13.46,0.31,41.74,5.99,0.16,0.29,2.74,0.84,0.12,0,0.4,0,0,0,415,0,0,1039,784,71,46,0,71,0.147,0.294,0.56,10.44,20.87,39.689,46,10,27.6,18.4,136,0,203.289,0,25,91.1264,35.4
143,33.45,13.46,0.31,41.74,5.99,0.16,0.29,2.74,0.84,0.12,0,0.4,0,0,0,412,0,0,1039,784,87,33,0,87,0.147,0.294,0.56,12.79,25.58,48.633,33,10,19.8,13.2,135,0,203.433,0,25,86.7724,37
144,49.45,29.61,10.72,3.47,1.3,0.31,0.54,0.27,1.76,0.53,0,0.17,1.45,0,476,0,0,0,1039,784,90,95,0,90,0.147,0.294,0.56,13.23,26.46,50.31,95,10,57,38,40,0,147.31,0,25,115.8244,39.1
145,49.45,29.61,10.72,3.47,1.3,0.31,0.54,0.27,1.76,0.53,0,0.17,1.45,0,467,0,0,0,1039,784,119,75,0,119,0.147,0.294,0.56,17.49,34.99,66.521,75,10,45,30,38,0,149.521,0,25,110.9084,51.3
146,49.45,29.61,10.72,3.47,1.3,0.31,0.54,0.27,1.76,0.53,0,0.17,1.45,0,461,0,0,0,1039,784,147,56,0,147,0.147,0.294,0.56,21.61,43.22,82.173,56,10,33.6,22.4,36,0,151.773,0,25,106.4104,52.5
366,52.54,26.74,11.12,1.28,0.87,0.47,0.82,1.7,1.57,1.53,0,0,1.36,0,450,0,0,0,1211.9,579.35,128.63,51.45,0,128.63,0.147,0.294,0.56,18.91,37.82,71.90417,51.45,8,34.986,16.464,0,0,106.89,1,60,110.692,36.18
367,52.54,26.74,11.12,1.28,0.87,0.47,0.82,1.7,1.57,1.53,0,0,1.36,0,450,0,0,0,1211.9,579.35,128.63,51.45,0,128.63,0.147,0.294,0.56,18.91,37.82,71.90417,51.45,10,30.87,20.58,0,0,102.774,1,60,118.574,35.83
368,52.54,26.74,11.12,1.28,0.87,0.47,0.82,1.7,1.57,1.53,0,0,1.36,0,450,0,0,0,1211.9,579.35,128.63,51.45,0,128.63,0.147,0.294,0.56,18.91,37.82,71.90417,51.45,12,26.754,24.696,0,0,98.65817,1,60,126.456,34.92
369,52.54,26.74,11.12,1.28,0.87,0.47,0.82,1.7,1.57,1.53,0,0,1.36,0,450,0,0,0,1211.9,579.35,144.68,57.88,0,144.68,0.147,0.294,0.56,21.27,42.54,80.87612,57.88,8,39.3584,18.5216,0,0,120.235,1,60,120.41,37.36
370,52.54,26.74,11.12,1.28,0.87,0.47,0.82,1.7,1.57,1.53,0,0,1.36,0,450,0,0,0,1211.9,579.35,144.68,57.88,0,144.68,0.147,0.294,0.56,21.27,42.54,80.87612,57.88,10,34.728,23.152,0,0,115.604,1,60,129.277,36.23
371,52.54,26.74,11.12,1.28,0.87,0.47,0.82,1.7,1.57,1.53,0,0,1.36,0,450,0,0,0,1211.9,579.35,144.68,57.88,0,144.68,0.147,0.294,0.56,21.27,42.54,80.87612,57.88,12,30.0976,27.7824,0,0,110.974,1,60,138.144,35.67
372,52.54,26.74,11.12,1.28,0.87,0.47,0.82,1.7,1.57,1.53,0,0,1.36,0,450,0,0,0,1211.9,579.35,160.78,64.31,0,160.78,0.147,0.294,0.56,23.63,47.27,89.87602,64.31,8,43.7308,20.5792,0,0,133.607,1,60,130.146,38.72
373,52.54,26.74,11.12,1.28,0.87,0.47,0.82,1.7,1.57,1.53,0,0,1.36,0,450,0,0,0,1211.9,579.35,160.78,64.31,0,160.78,0.147,0.294,0.56,23.63,47.27,89.87602,64.31,10,38.586,25.724,0,0,128.462,1,60,139.999,37
374,52.54,26.74,11.12,1.28,0.87,0.47,0.82,1.7,1.57,1.53,0,0,1.36,0,450,0,0,0,1211.9,579.35,160.78,64.31,0,160.78,0.147,0.294,0.56,23.63,47.27,89.87602,64.31,12,33.4412,30.8688,0,0,123.317,1,60,149.851,36.45
375,52.54,26.74,11.12,1.28,0.87,0.47,0.82,1.7,1.57,1.53,0,0,1.36,0,450,0,0,0,1211.9,579.35,176.85,70.74,0,176.85,0.147,0.294,0.56,26,51.99,98.85915,70.74,8,48.1032,22.6368,0,0,146.962,1,60,139.872,36.27
376,52.54,26.74,11.12,1.28,0.87,0.47,0.82,1.7,1.57,1.53,0,0,1.36,0,450,0,0,0,1211.9,579.35,176.85,70.74,0,176.85,0.147,0.294,0.56,26,51.99,98.85915,70.74,10,42.444,28.296,0,0,141.303,1,60,150.709,35.54
377,52.54,26.74,11.12,1.28,0.87,0.47,0.82,1.7,1.57,1.53,0,0,1.36,0,450,0,0,0,1211.9,579.35,176.85,70.74,0,176.85,0.147,0.294,0.56,26,51.99,98.85915,70.74,12,36.7848,33.9552,0,0,135.644,1,60,161.547,36.13
586,50,28.25,13.5,1.79,0.89,0.32,0.46,0.38,1.54,0.98,0,0,0.64,0,400,0,0,0,1209,651,114.3,45.7,0,114.3,0.114,0.307,0.58,13.03,35.09,66.1797,45.7,14,20.108,25.592,0,0,86.2877,0,25,100.685,15.814
587,48.246,26.855,12.211,5.921,1.195,0.312,0.447,0.8,1.441,0.884,0,0,0.585,0,360,40,0,0,1209,651,114.3,45.7,0,114.3,0.114,0.307,0.58,13.03,35.09,66.1797,45.7,14,20.108,25.592,0,0,86.2877,0,25,102.605,22.3256
588,46.492,25.46,10.922,10.052,1.5,0.304,0.434,1.22,1.342,0.788,0,0,0.53,0,320,80,0,0,1209,651,114.3,45.7,0,114.3,0.114,0.307,0.58,13.03,35.09,66.1797,45.7,14,20.108,25.592,0,0,86.2877,0,25,104.525,28.3721
589,44.738,24.065,9.633,14.183,1.805,0.296,0.421,1.64,1.243,0.692,0,0,0.475,0,280,120,0,0,1209,651,114.3,45.7,0,114.3,0.114,0.307,0.58,13.03,35.09,66.1797,45.7,14,20.108,25.592,0,0,86.2877,0,25,106.445,41.8605
590,48.246,26.855,12.211,5.921,1.195,0.312,0.447,0.8,1.441,0.884,0,0,0.585,0,360,40,0,0,1209,651,100,40,0,100,0.114,0.307,0.58,11.4,30.7,57.9,40,14,17.6,22.4,0,0,75.5,0,25,91.344,32.5275
591,48.246,26.855,12.211,5.921,1.195,0.312,0.447,0.8,1.441,0.884,0,0,0.585,0,360,40,0,0,1209,651,128.5,51.5,0,128.5,0.114,0.307,0.58,14.65,39.45,74.4015,51.5,14,22.66,28.84,0,0,97.0615,0,25,113.9366,20.2198
592,48.246,26.855,12.211,5.921,1.195,0.312,0.447,0.8,1.441,0.884,0,0,0.585,0,360,40,0,0,1209,651,96,64,0,96,0.114,0.307,0.58,10.94,29.47,55.584,64,14,28.16,35.84,0,0,83.744,0,25,115.6416,18.9189
593,48.246,26.855,12.211,5.921,1.195,0.312,0.447,0.8,1.441,0.884,0,0,0.585,0,360,40,0,0,1209,651,106.7,53.3,0,106.7,0.114,0.307,0.58,12.16,32.76,61.7793,53.3,14,23.452,29.848,0,0,85.2313,0,25,108.019,21.6216
643,49,31,2.8,5.4,2.5,3.76,1.17,0.3,2.1,0.9,0.1,0.1,0.3,0,424.8,0,0,0,1183.2,585.6,95.04,63.36,0,95.04,0.147,0.294,0.56,13.97,27.94,53.12736,63.36,14,27.8784,35.4816,9.6,48,209.406,1,70,231.466,48.7868
646,49,31,2.8,5.4,2.5,3.76,1.17,0.3,2.1,0.9,0.1,0.1,0.3,0,424.8,0,0,0,1183.2,585.6,95.04,63.36,0,95.04,0.147,0.294,0.56,13.97,27.94,50.3712,63.36,14,27.8784,35.4816,9.6,48,206.6496,0,25,202.591,7.18684
647,49,31,2.8,5.4,2.5,3.76,1.17,0.3,2.1,0.9,0.1,0.1,0.3,0,424.8,0,0,0,1183.2,585.6,95.04,63.36,0,95.04,0.147,0.294,0.56,13.97,27.94,50.3712,63.36,14,27.8784,35.4816,45.6,0,177.8496,0,25,112.351,14.2
717,53.72,27.2,11.17,1.9,0,0.36,0.54,0.3,0.71,1.62,0,0,0.68,0,400,0,0,0,1209,651,114.3,45.7,0,114.3,0.114,0.301,0.59,13.03,34.4,66.8655,45.7,14,20.108,25.592,0,0,86.9735,0,25,100.685,15.5357
718,51.7628,25.85,10.6618,5.602,0.156,0.3684,0.5076,0.432,0.6674,1.5228,0,0,0.7592,24,376,0,0,0,1209,651,114.3,45.7,0,114.3,0.114,0.301,0.59,13.03,34.4,66.8655,45.7,14,20.108,25.592,0,0,86.9735,0,25,120.749,21.1607
719,51.1104,25.4,10.4924,6.836,0.208,0.3712,0.4968,0.476,0.6532,1.4904,0,0,0.7856,30,368,0,0,0,1209,651,114.3,45.7,0,114.3,0.114,0.301,0.59,13.03,34.4,66.8655,45.7,14,20.108,25.592,0,0,86.9735,0,25,125.757,22.5
720,50.458,24.95,10.323,8.07,0.26,0.374,0.486,0.52,0.639,1.458,0,0,0.812,40,360,0,0,0,1209,651,114.3,45.7,0,114.3,0.114,0.301,0.59,13.03,34.4,66.8655,45.7,14,20.108,25.592,0,0,86.9735,0,25,134.125,24.5283
721,49.8056,24.5,10.1536,9.304,0.312,0.3768,0.4752,0.564,0.6248,1.4256,0,0,0.8384,48,352,0,0,0,1209,651,114.3,45.7,0,114.3,0.114,0.301,0.59,13.03,34.4,66.8655,45.7,14,20.108,25.592,0,0,86.9735,0,25,140.813,23.8393
722,50.458,24.95,10.323,8.07,0.26,0.374,0.486,0.52,0.639,1.458,0,0,0.812,40,360,0,0,0,1209,651,106.7,53.3,0,106.7,0.114,0.301,0.59,12.16,32.12,62.4195,53.3,14,23.452,29.848,0,0,85.8715,0,25,139.539,22.6415
723,50.458,24.95,10.323,8.07,0.26,0.374,0.486,0.52,0.639,1.458,0,0,0.812,40,360,0,0,0,1209,651,96,64,0,96,0.114,0.301,0.59,10.94,28.9,56.16,64,14,28.16,35.84,0,0,84.32,0,25,147.1616,22.2642
783,45.23,19.95,13.15,15.51,3.2,0,0,0,0,0,0,0,0,0,414,0,0,0,1091,588,104,104,0,104,0.1532,0.3287,0.52,15.93,34.18,53.8824,104,10,62.4,41.6,0,0,116.2824,0,25,126.8192,19.89
784,45.23,19.95,13.15,15.51,3.2,0,0,0,0,0,0,0,0,0,414,0,0,0,1091,588,104,104,0,104,0.1532,0.3287,0.52,15.93,34.18,53.8824,104,15,41.6,62.4,0,0,95.4824,0,25,166.6512,22.3
785,45.23,19.95,13.15,15.51,3.2,0,0,0,0,0,0,0,0,0,414,0,0,0,1091,588,104,104,0,104,0.1532,0.3287,0.52,15.93,34.18,53.8824,104,20,20.8,83.2,0,0,74.6824,0,25,206.4832,20.5
786,45.23,19.95,13.15,15.51,3.2,0,0,0,0,0,0,0,0,0,414,0,0,0,1091,588,138,69,0,138,0.1532,0.3287,0.52,21.14,45.36,71.4978,69,10,41.4,27.6,0,0,112.8978,0,25,112.2492,21.27
787,45.23,19.95,13.15,15.51,3.2,0,0,0,0,0,0,0,0,0,414,0,0,0,1091,588,138,69,0,138,0.1532,0.3287,0.52,21.14,45.36,71.4978,69,15,27.6,41.4,0,0,99.0978,0,25,138.6762,22.99
788,45.23,19.95,13.15,15.51,3.2,0,0,0,0,0,0,0,0,0,414,0,0,0,1091,588,138,69,0,138,0.1532,0.3287,0.52,21.14,45.36,71.4978,69,20,13.8,55.2,0,0,85.2978,0,25,165.1032,23.06
789,45.23,19.95,13.15,15.51,3.2,0,0,0,0,0,0,0,0,0,414,0,0,0,1091,588,104,104,0,104,0.1532,0.3287,0.52,15.93,34.18,53.8824,104,10,62.4,41.6,0,0,116.2824,1,60,149.278,40.73
790,45.23,19.95,13.15,15.51,3.2,0,0,0,0,0,0,0,0,0,414,0,0,0,1091,588,104,104,0,104,0.1532,0.3287,0.52,15.93,34.18,53.8824,104,15,41.6,62.4,0,0,95.4824,1,60,189.11,42.91
791,45.23,19.95,13.15,15.51,3.2,0,0,0,0,0,0,0,0,0,414,0,0,0,1091,588,104,104,0,104,0.1532,0.3287,0.52,15.93,34.18,53.8824,104,20,20.8,83.2,0,0,74.6824,1,60,228.942,41.2
792,45.23,19.95,13.15,15.51,3.2,0,0,0,0,0,0,0,0,0,414,0,0,0,1091,588,138,69,0,138,0.1532,0.3287,0.52,21.14,45.36,71.4978,69,10,41.4,27.6,0,0,112.8978,1,60,134.708,37.69
793,45.23,19.95,13.15,15.51,3.2,0,0,0,0,0,0,0,0,0,414,0,0,0,1091,588,138,69,0,138,0.1532,0.3287,0.52,21.14,45.36,71.4978,69,15,27.6,41.4,0,0,99.0978,1,60,161.135,38.85
794,45.23,19.95,13.15,15.51,3.2,0,0,0,0,0,0,0,0,0,414,0,0,0,1091,588,138,69,0,138,0.1532,0.3287,0.52,21.14,45.36,71.4978,69,20,13.8,55.2,0,0,85.2978,1,60,187.562,39.27
1043,32.4,14.96,0.83,40.7,5.99,0.42,0.29,2.74,0.84,0.38,0,0.4,0,0,0,400,0,0,1208,650,84,56,1.53,84,0.147,0.294,0.56,12.35,24.7,46.956,56,10,33.6,22.4,48,20,140.556,0,25,140.4544,40.89
1044,32.4,14.96,0.83,40.7,5.99,0.42,0.29,2.74,0.84,0.38,0,0.4,0,0,0,400,0,0,1182,636,120,60,1.53,120,0.147,0.294,0.56,17.64,35.28,67.08,60,12,31.2,28.8,48,20,158.28,0,25,165.4784,38.47
1045,32.4,14.96,0.83,40.7,5.99,0.42,0.29,2.74,0.84,0.38,0,0.4,0,0,0,400,0,0,1156,622,157,63,1.53,157,0.147,0.294,0.56,23.08,46.16,87.763,63,14,27.72,35.28,48,20,175.483,0,25,191.0156,36.94
1046,32.4,14.96,0.83,40.7,5.99,0.42,0.29,2.74,0.84,0.38,0,0.4,0,0,0,450,0,0,1161,625,105,53,1.53,105,0.147,0.294,0.56,15.44,30.87,58.695,53,14,23.32,29.68,54,22.5,149.515,0,25,168.91,56.05
1047,32.4,14.96,0.83,40.7,5.99,0.42,0.29,2.74,0.84,0.38,0,0.4,0,0,0,450,0,0,1132,609,145,58,1.53,145,0.147,0.294,0.56,21.32,42.63,81.055,58,10,34.8,23.2,54,22.5,183.355,0,25,170.6848,41.4
1048,32.4,14.96,0.83,40.7,5.99,0.42,0.29,2.74,0.84,0.38,0,0.4,0,0,0,450,0,0,1102,594,149,99,1.53,149,0.147,0.294,0.56,21.9,43.81,83.291,99,12,51.48,47.52,54,22.5,202.271,0,25,218.4816,35.03
1049,32.4,14.96,0.83,40.7,5.99,0.42,0.29,2.74,0.84,0.38,0,0.4,0,0,0,500,0,0,1115,600,125,50,1.53,125,0.147,0.294,0.56,18.38,36.75,69.875,50,12,26,24,60,25,170.875,0,25,172.192,52.23
1050,32.4,14.96,0.83,40.7,5.99,0.42,0.29,2.74,0.84,0.38,0,0.4,0,0,0,500,0,0,1082,583,135,90,1.53,135,0.147,0.294,0.56,19.85,39.69,75.465,90,14,39.6,50.4,60,25,190.065,0,25,226.108,40.13
1051,32.4,14.96,0.83,40.7,5.99,0.42,0.29,2.74,0.84,0.38,0,0.4,0,0,0,500,0,0,1050,565,183,92,1.53,183,0.147,0.294,0.56,26.9,53.8,102.297,92,10,55.2,36.8,60,25,232.497,0,25,217.104,32.61
1052,32.4,14.96,0.83,40.7,5.99,0.42,0.29,2.74,0.84,0.38,0,0.4,0,0,0,450,0,0,1161,625,133,53,1.53,105,0.147,0.294,0.56,15.44,30.87,58.695,53,14,23.32,29.68,54,22.5,149.515,0,25,178.99,60.38
1053,35.38,16.214,1.139,36.857,5.496,0.43,0.385,2.466,0.772,0.372,0,0.369,0,0,45,405,0,0,1161,625,105,53,1.53,105,0.147,0.294,0.56,15.44,30.87,58.695,53,14,23.32,29.68,54,22.5,149.515,0,25,166.75,58.55
1054,38.36,17.468,1.448,33.014,5.002,0.44,0.48,2.192,0.704,0.364,0,0.338,0,0,90,360,0,0,1161,625,105,53,1.53,105,0.147,0.294,0.56,15.44,30.87,58.695,53,14,23.32,29.68,54,22.5,149.515,0,25,164.59,56.34
1055,41.34,18.722,1.757,29.171,4.508,0.45,0.575,1.918,0.636,0.356,0,0.307,0,0,135,315,0,0,1161,625,105,53,1.53,105,0.147,0.294,0.56,15.44,30.87,58.695,53,14,23.32,29.68,54,22.5,149.515,0,25,162.43,49.2
1056,44.32,19.976,2.066,25.328,4.014,0.46,0.67,1.644,0.568,0.348,0,0.276,0,0,180,270,0,0,1161,625,105,53,1.53,105,0.147,0.294,0.56,15.44,30.87,58.695,53,14,23.32,29.68,54,22.5,149.515,0,25,160.27,42.68
1057,47.3,21.23,2.375,21.485,3.52,0.47,0.765,1.37,0.5,0.34,0,0.245,0,0,225,225,0,0,1161,625,105,53,1.53,105,0.147,0.294,0.56,15.44,30.87,58.695,53,14,23.32,29.68,54,22.5,149.515,0,25,158.11,40.82
1058,50.28,22.484,2.684,17.642,3.026,0.48,0.86,1.096,0.432,0.332,0,0.214,0,0,270,180,0,0,1161,625,105,53,1.53,105,0.147,0.294,0.56,15.44,30.87,58.695,53,14,23.32,29.68,54,22.5,149.515,0,25,155.95,35.41
1059,34.381,17.872,0.747,36.799,5.391,0.378,0.261,2.466,0.774,0.342,0,0.36,0,0,0,405,0,45,1161,625,105,53,1.53,105,0.147,0.294,0.56,15.44,30.87,58.695,53,14,23.32,29.68,54,22.5,149.515,0,25,181.42,40.03
1060,36.362,20.784,0.664,32.898,4.792,0.336,0.232,2.192,0.708,0.304,0,0.32,0,0,0,360,0,90,1161,625,105,53,1.53,105,0.147,0.294,0.56,15.44,30.87,58.695,53,14,23.32,29.68,54,22.5,149.515,0,25,193.93,34.21
1061,38.343,23.696,0.581,28.997,4.193,0.294,0.203,1.918,0.642,0.266,0,0.28,0,0,0,315,0,135,1161,625,105,53,1.53,105,0.147,0.294,0.56,15.44,30.87,58.695,53,14,23.32,29.68,54,22.5,149.515,0,25,206.44,28.14
1062,40.324,26.608,0.498,25.096,3.594,0.252,0.174,1.644,0.576,0.228,0,0.24,0,0,0,270,0,180,1161,625,105,53,1.53,105,0.147,0.294,0.56,15.44,30.87,58.695,53,14,23.32,29.68,54,22.5,149.515,0,25,218.95,26.75
1063,42.305,29.52,0.415,21.195,2.995,0.21,0.145,1.37,0.51,0.19,0,0.2,0,0,0,225,0,225,1161,625,105,53,1.53,105,0.147,0.294,0.56,15.44,30.87,58.695,53,14,23.32,29.68,54,22.5,149.515,0,25,231.46,25.78
1064,44.286,32.432,0.332,17.294,2.396,0.168,0.116,1.096,0.444,0.152,0,0.16,0,0,0,180,0,270,1161,625,105,53,1.53,105,0.147,0.294,0.56,15.44,30.87,58.695,53,14,23.32,29.68,54,22.5,149.515,0,25,243.97,25.36
1065,37.736,13.653,0.803,36.722,5.472,0.452,0.347,2.496,0.756,0.342,0,0.36,0.4,0,0,405,45,0,1161,625,105,53,1.53,105,0.147,0.294,0.56,15.44,30.87,58.695,53,14,23.32,29.68,54,22.5,149.515,0,25,167.2,42.16
1066,43.072,12.346,0.776,32.744,4.954,0.484,0.404,2.252,0.672,0.304,0,0.32,0.8,0,0,360,90,0,1161,625,105,53,1.53,105,0.147,0.294,0.56,15.44,30.87,58.695,53,14,23.32,29.68,54,22.5,149.515,0,25,165.49,36.1
1067,48.408,11.039,0.749,28.766,4.436,0.516,0.461,2.008,0.588,0.266,0,0.28,1.2,0,0,315,135,0,1161,625,105,53,1.53,105,0.147,0.294,0.56,15.44,30.87,58.695,53,14,23.32,29.68,54,22.5,149.515,0,25,163.78,32.12
1068,53.744,9.732,0.722,24.788,3.918,0.548,0.518,1.764,0.504,0.228,0,0.24,1.6,0,0,270,180,0,1161,625,105,53,1.53,105,0.147,0.294,0.56,15.44,30.87,58.695,53,14,23.32,29.68,54,22.5,149.515,0,25,162.07,30.41
1069,59.08,8.425,0.695,20.81,3.4,0.58,0.575,1.52,0.42,0.19,0,0.2,2,0,0,225,225,0,1161,625,105,53,1.53,105,0.147,0.294,0.56,15.44,30.87,58.695,53,14,23.32,29.68,54,22.5,149.515,0,25,160.36,29.55
1070,64.416,7.118,0.668,16.832,2.882,0.612,0.632,1.276,0.336,0.152,0,0.16,2.4,0,0,180,270,0,1161,625,105,53,1.53,105,0.147,0.294,0.56,15.44,30.87,58.695,53,14,23.32,29.68,54,22.5,149.515,0,25,158.65,28.98
1309,74.18,9.44,4.22,5.53,2.48,0.32,1.46,0,0.96,0,0,0,0.82,0,459,0,0,0,1172,539,142.857,57.1429,1.53,142.857,0.154,0.385,0.46,22,55,65.8571,57.1429,10,34.2857,22.8571,0,0,100.143,0,20,105.249,9.32203
1310,74.18,9.44,4.22,5.53,2.48,0.32,1.46,0,0.96,0,0,0,0.82,0,459,0,0,0,1172,539,142.857,57.1429,1.53,142.857,0.154,0.385,0.46,22,55,65.8571,57.1429,10,34.2857,22.8571,0,0,100.143,1,80,140.54,22.7119
1311,71.3197,9.08144,4.12836,8.52001,2.50361,0.304,1.40887,0.22779,0.950269,0,0,0,0.995401,22.95,436.05,0,0,0,1172,539,142.857,57.1429,1.53,142.857,0.154,0.385,0.46,22,55,65.8571,57.1429,10,34.2857,22.8571,0,0,100.143,0,20,124.435,17.1186
1312,71.3197,9.08144,4.12836,8.52001,2.50361,0.304,1.40887,0.22779,0.950269,0,0,0,0.995401,22.95,436.05,0,0,0,1172,539,142.857,57.1429,1.53,142.857,0.154,0.385,0.46,22,55,65.8571,57.1429,10,34.2857,22.8571,0,0,100.143,1,80,159.727,44.5763
1313,68.4595,8.72288,4.03672,11.51,2.52722,0.288,1.35774,0.455581,0.940538,0,0,0,1.1708,45.9,413.1,0,0,0,1172,539,142.857,57.1429,1.53,142.857,0.154,0.385,0.46,22,55,65.8571,57.1429,10,34.2857,22.8571,0,0,100.143,0,20,143.621,16.7797
1314,68.4595,8.72288,4.03672,11.51,2.52722,0.288,1.35774,0.455581,0.940538,0,0,0,1.1708,45.9,413.1,0,0,0,1172,539,142.857,57.1429,1.53,142.857,0.154,0.385,0.46,22,55,65.8571,57.1429,10,34.2857,22.8571,0,0,100.143,1,80,178.913,47.4576