File: DS_cube_150_2_Strength.csv
Idx_Sample,SiO2,Al2O3,Fe2O3,CaO,MgO,Na2O,K2O,SO3,TiO2,LOI,FA (kg/m3),GGBFS (kg/m3),Coarse aggregate (kg/m3),Fine aggregate (kg/m3),Na2SiO3,NaOH,Na2O (l),Sio2 (l),H2O,Na2O (Dry),Sio2 (Dry),Water,Concentration (M) NaOH,Water,NaOH (Dry),Additional water,Superplasticizer,water -eff,Initial curing time (day),Initial curing temp (C),Initial curing rest time (day),Final curing temp (C),Mixture CO2 (Na2SiO3 as solution),28-d Cubic compressive strength (MPa)
669,64.11,18.58,4.32,1.21,0.24,0.21,1.02,0,0,0.64,383,0,1188,546,120,80,0.1426,0.2943,0.56,17.11,35.32,67.572,8,54.4,25.6,0,0,121.972,1,90,1,24,143.788,29.62
670,64.11,18.58,4.32,1.21,0.24,0.21,1.02,0,0,0.64,383,0,1188,546,120,80,0.1426,0.2943,0.56,17.11,35.32,67.572,10,48,32,0,0,115.572,1,90,1,24,156.044,31.39
671,64.11,18.58,4.32,1.21,0.24,0.21,1.02,0,0,0.64,383,0,1188,546,120,80,0.1426,0.2943,0.56,17.11,35.32,67.572,12,41.6,38.4,0,0,109.172,1,90,1,24,168.3,33.17
672,64.11,18.58,4.32,1.21,0.24,0.21,1.02,0,0,0.64,463.5,0,1154.06,530.7,120,80,0.1426,0.2943,0.56,17.11,35.32,67.572,8,54.4,25.6,0,0,121.972,1,90,1,24,143.873,32.43
673,64.11,18.58,4.32,1.21,0.24,0.21,1.02,0,0,0.64,463.5,0,1154.06,530.7,120,80,0.1426,0.2943,0.56,17.11,35.32,67.572,10,48,32,0,0,115.572,1,90,1,24,156.129,34.21
674,64.11,18.58,4.32,1.21,0.24,0.21,1.02,0,0,0.64,463.5,0,1154.06,530.7,120,80,0.1426,0.2943,0.56,17.11,35.32,67.572,12,41.6,38.4,0,0,109.172,1,90,1,24,168.385,35.98
675,64.11,18.58,4.32,1.21,0.24,0.21,1.02,0,0,0.64,530,0,1117,514,120,80,0.1426,0.2943,0.56,17.11,35.32,67.572,8,54.4,25.6,0,0,121.972,1,90,1,24,143.881,42.8
676,64.11,18.58,4.32,1.21,0.24,0.21,1.02,0,0,0.64,530,0,1117,514,120,80,0.1426,0.2943,0.56,17.11,35.32,67.572,10,48,32,0,0,115.572,1,90,1,24,156.137,45.02
677,64.11,18.58,4.32,1.21,0.24,0.21,1.02,0,0,0.64,530,0,1117,514,120,80,0.1426,0.2943,0.56,17.11,35.32,67.572,12,41.6,38.4,0,0,109.172,1,90,1,24,168.393,47.24
1399,52.295,24.571,3.215,12.58,3.242,0.154,0,0.515,0,3.391,252,108,1090.8,774,115.714,46.2857,0.115,0.3,0.59,13.31,34.71,67.6929,8,31.4743,14.8114,0,14.4,107.807,0,25,1,30,112.668,33.8369
1400,52.295,24.571,3.215,12.58,3.242,0.154,0,0.515,0,3.391,252,108,1090.8,774,128.571,51.4286,0.115,0.3,0.59,14.79,38.57,75.2143,8,34.9714,16.4571,0,14.4,118.826,0,25,1,30,120.448,36.1631
1401,52.295,24.571,3.215,12.58,3.242,0.154,0,0.515,0,3.391,252,108,1090.8,774,141.429,56.5714,0.115,0.3,0.59,16.26,42.43,82.7357,8,38.4686,18.1029,0,14.4,129.844,0,25,1,30,128.228,31.0876
1402,52.295,24.571,3.215,12.58,3.242,0.154,0,0.515,0,3.391,252,108,1090.8,774,154.286,61.7143,0.115,0.3,0.59,17.74,46.29,90.2571,8,41.9657,19.7486,0,14.4,140.863,0,25,1,30,136.008,25.8006
1403,52.295,24.571,3.215,12.58,3.242,0.154,0,0.515,0,3.391,294,126,966,810.6,135,54,0.115,0.3,0.59,15.53,40.5,78.975,8,36.72,17.28,0,16.8,125.775,0,25,1,30,129.531,36.7598
1404,52.295,24.571,3.215,12.58,3.242,0.154,0,0.515,0,3.391,294,126,966,810.6,150,60,0.115,0.3,0.59,17.25,45,87.75,8,40.8,19.2,0,16.8,138.63,0,25,1,30,138.608,38.1285
1405,52.295,24.571,3.215,12.58,3.242,0.154,0,0.515,0,3.391,294,126,966,810.6,165,66,0.115,0.3,0.59,18.98,49.5,96.525,8,44.88,21.12,0,16.8,151.485,0,25,1,30,147.684,26.2011
1406,52.295,24.571,3.215,12.58,3.242,0.154,0,0.515,0,3.391,294,126,966,810.6,180,72,0.115,0.3,0.59,20.7,54,105.3,8,48.96,23.04,0,16.8,164.34,0,25,1,30,156.761,25.0279
1407,52.295,24.571,3.215,12.58,3.242,0.154,0,0.515,0,3.391,315,135,972,760.5,144.643,57.8571,0.115,0.3,0.59,16.63,43.39,84.6161,8,39.3429,18.5143,0,18,134.759,0,25,1,30,137.962,33.8562
1408,52.295,24.571,3.215,12.58,3.242,0.154,0,0.515,0,3.391,315,135,972,760.5,160.714,64.2857,0.115,0.3,0.59,18.48,48.21,94.0179,8,43.7143,20.5714,0,18,148.532,0,25,1,30,147.687,38.8889
1409,52.295,24.571,3.215,12.58,3.242,0.154,0,0.515,0,3.391,315,135,972,760.5,176.786,70.7143,0.115,0.3,0.59,20.33,53.04,103.42,8,48.0857,22.6286,0,18,162.305,0,25,1,30,157.413,25.6209
1410,52.295,24.571,3.215,12.58,3.242,0.154,0,0.515,0,3.391,315,135,972,760.5,192.857,77.1429,0.115,0.3,0.59,22.18,57.86,112.821,8,52.4571,24.6857,0,18,176.079,0,25,1,30,167.138,20.5882
1411,49.69,23.918,2.87,15.44,3.906,0.132,0,0.57,0,3.438,216,144,1090.8,774,115.714,46.2857,0.115,0.3,0.59,13.31,34.71,67.6929,8,31.4743,14.8114,0,14.4,107.807,0,25,1,30,114.396,42.2961
1412,49.69,23.918,2.87,15.44,3.906,0.132,0,0.57,0,3.438,216,144,1090.8,774,128.571,51.4286,0.115,0.3,0.59,14.79,38.57,75.2143,8,34.9714,16.4571,0,14.4,118.826,0,25,1,30,122.176,48.006
1413,49.69,23.918,2.87,15.44,3.906,0.132,0,0.57,0,3.438,216,144,1090.8,774,141.429,56.5714,0.115,0.3,0.59,16.26,42.43,82.7357,8,38.4686,18.1029,0,14.4,129.844,0,25,1,30,129.956,46.7372
1414,49.69,23.918,2.87,15.44,3.906,0.132,0,0.57,0,3.438,216,144,1090.8,774,154.286,61.7143,0.115,0.3,0.59,17.74,46.29,90.2571,8,41.9657,19.7486,0,14.4,140.863,0,25,1,30,137.736,43.3535
1415,49.69,23.918,2.87,15.44,3.906,0.132,0,0.57,0,3.438,252,168,966,810.6,135,54,0.115,0.3,0.59,15.53,40.5,78.975,8,36.72,17.28,0,16.8,125.775,0,25,1,30,131.547,46.1453
1416,49.69,23.918,2.87,15.44,3.906,0.132,0,0.57,0,3.438,252,168,966,810.6,150,60,0.115,0.3,0.59,17.25,45,87.75,8,40.8,19.2,0,16.8,138.63,0,25,1,30,140.624,51.4246
1417,49.69,23.918,2.87,15.44,3.906,0.132,0,0.57,0,3.438,252,168,966,810.6,165,66,0.115,0.3,0.59,18.98,49.5,96.525,8,44.88,21.12,0,16.8,151.485,0,25,1,30,149.7,44.581
1418,49.69,23.918,2.87,15.44,3.906,0.132,0,0.57,0,3.438,252,168,966,810.6,180,72,0.115,0.3,0.59,20.7,54,105.3,8,48.96,23.04,0,16.8,164.34,0,25,1,30,158.777,46.5363
1419,49.69,23.918,2.87,15.44,3.906,0.132,0,0.57,0,3.438,270,180,972,760.5,144.643,57.8571,0.115,0.3,0.59,16.63,43.39,84.6161,8,39.3429,18.5143,0,18,134.759,0,25,1,30,140.122,45.7516
1420,49.69,23.918,2.87,15.44,3.906,0.132,0,0.57,0,3.438,270,180,972,760.5,160.714,64.2857,0.115,0.3,0.59,18.48,48.21,94.0179,8,43.7143,20.5714,0,18,148.532,0,25,1,30,149.847,50.7843
1421,49.69,23.918,2.87,15.44,3.906,0.132,0,0.57,0,3.438,270,180,972,760.5,176.786,70.7143,0.115,0.3,0.59,20.33,53.04,103.42,8,48.0857,22.6286,0,18,162.305,0,25,1,30,159.573,41.8627
1422,49.69,23.918,2.87,15.44,3.906,0.132,0,0.57,0,3.438,270,180,972,760.5,192.857,77.1429,0.115,0.3,0.59,22.18,57.86,112.821,8,52.4571,24.6857,0,18,176.079,0,25,1,30,169.298,45.7516
1423,47.085,23.265,2.525,18.3,4.57,0.11,0,0.625,0,3.485,180,180,1090.8,774,115.714,46.2857,0.115,0.3,0.59,13.31,34.71,67.6929,8,31.4743,14.8114,0,14.4,107.807,0,25,1,30,116.124,55.4079
1424,47.085,23.265,2.525,18.3,4.57,0.11,0,0.625,0,3.485,180,180,1090.8,774,128.571,51.4286,0.115,0.3,0.59,14.79,38.57,75.2143,8,34.9714,16.4571,0,14.4,118.826,0,25,1,30,123.904,59.6375
1425,47.085,23.265,2.525,18.3,4.57,0.11,0,0.625,0,3.485,180,180,1090.8,774,141.429,56.5714,0.115,0.3,0.59,16.26,42.43,82.7357,8,38.4686,18.1029,0,14.4,129.844,0,25,1,30,131.684,51.6012
1426,47.085,23.265,2.525,18.3,4.57,0.11,0,0.625,0,3.485,180,180,1090.8,774,154.286,61.7143,0.115,0.3,0.59,17.74,46.29,90.2571,8,41.9657,19.7486,0,14.4,140.863,0,25,1,30,139.464,46.5257
1427,47.085,23.265,2.525,18.3,4.57,0.11,0,0.625,0,3.485,210,210,966,810.6,135,54,0.115,0.3,0.59,15.53,40.5,78.975,8,36.72,17.28,0,16.8,125.775,0,25,1,30,133.563,56.7039
1428,47.085,23.265,2.525,18.3,4.57,0.11,0,0.625,0,3.485,210,210,966,810.6,150,60,0.115,0.3,0.59,17.25,45,87.75,8,40.8,19.2,0,16.8,138.63,0,25,1,30,142.64,60.419
1429,47.085,23.265,2.525,18.3,4.57,0.11,0,0.625,0,3.485,210,210,966,810.6,165,66,0.115,0.3,0.59,18.98,49.5,96.525,8,44.88,21.12,0,16.8,151.485,0,25,1,30,151.716,46.5363
1430,47.085,23.265,2.525,18.3,4.57,0.11,0,0.625,0,3.485,210,210,966,810.6,180,72,0.115,0.3,0.59,20.7,54,105.3,8,48.96,23.04,0,16.8,164.34,0,25,1,30,160.793,47.514
1431,47.085,23.265,2.525,18.3,4.57,0.11,0,0.625,0,3.485,225,225,972,760.5,144.643,57.8571,0.115,0.3,0.59,16.63,43.39,84.6161,8,39.3429,18.5143,0,18,134.759,0,25,1,30,142.282,48.9542
1432,47.085,23.265,2.525,18.3,4.57,0.11,0,0.625,0,3.485,225,225,972,760.5,160.714,64.2857,0.115,0.3,0.59,18.48,48.21,94.0179,8,43.7143,20.5714,0,18,148.532,0,25,1,30,152.007,58.3333
1433,47.085,23.265,2.525,18.3,4.57,0.11,0,0.625,0,3.485,225,225,972,760.5,176.786,70.7143,0.115,0.3,0.59,20.33,53.04,103.42,8,48.0857,22.6286,0,18,162.305,0,25,1,30,161.733,48.4967
1434,47.085,23.265,2.525,18.3,4.57,0.11,0,0.625,0,3.485,225,225,972,760.5,192.857,77.1429,0.115,0.3,0.59,22.18,57.86,112.821,8,52.4571,24.6857,0,18,176.079,0,25,1,30,171.458,47.5817
1435,52.295,24.571,3.215,12.58,3.242,0.154,0,0.515,0,3.391,252,108,1090.8,774,115.714,46.2857,0.115,0.3,0.59,13.31,34.71,67.6929,8,31.4743,14.8114,0,14.4,107.807,1,60,1,30,135.126,41.4502
1436,52.295,24.571,3.215,12.58,3.242,0.154,0,0.515,0,3.391,252,108,1090.8,774,128.571,51.4286,0.115,0.3,0.59,14.79,38.57,75.2143,8,34.9714,16.4571,0,14.4,118.826,1,60,1,30,142.907,42.5076
1437,52.295,24.571,3.215,12.58,3.242,0.154,0,0.515,0,3.391,252,108,1090.8,774,141.429,56.5714,0.115,0.3,0.59,16.26,42.43,82.7357,8,38.4686,18.1029,0,14.4,129.844,1,60,1,30,150.687,33.8369
1438,52.295,24.571,3.215,12.58,3.242,0.154,0,0.515,0,3.391,252,108,1090.8,774,154.286,61.7143,0.115,0.3,0.59,17.74,46.29,90.2571,8,41.9657,19.7486,0,14.4,140.863,1,60,1,30,158.467,28.5498
1439,52.295,24.571,3.215,12.58,3.242,0.154,0,0.515,0,3.391,294,126,966,810.6,135,54,0.115,0.3,0.59,15.53,40.5,78.975,8,36.72,17.28,0,16.8,125.775,1,60,1,30,151.989,40.4749
1440,52.295,24.571,3.215,12.58,3.242,0.154,0,0.515,0,3.391,294,126,966,810.6,150,60,0.115,0.3,0.59,17.25,45,87.75,8,40.8,19.2,0,16.8,138.63,1,60,1,30,161.066,43.6034
1441,52.295,24.571,3.215,12.58,3.242,0.154,0,0.515,0,3.391,294,126,966,810.6,165,66,0.115,0.3,0.59,18.98,49.5,96.525,8,44.88,21.12,0,16.8,151.485,1,60,1,30,170.143,31.0894
1442,52.295,24.571,3.215,12.58,3.242,0.154,0,0.515,0,3.391,294,126,966,810.6,180,72,0.115,0.3,0.59,20.7,54,105.3,8,48.96,23.04,0,16.8,164.34,1,60,1,30,179.22,26.7877
1443,52.295,24.571,3.215,12.58,3.242,0.154,0,0.515,0,3.391,315,135,972,760.5,144.643,57.8571,0.115,0.3,0.59,16.63,43.39,84.6161,8,39.3429,18.5143,0,18,134.759,1,60,1,30,160.421,38.6601
1444,52.295,24.571,3.215,12.58,3.242,0.154,0,0.515,0,3.391,315,135,972,760.5,160.714,64.2857,0.115,0.3,0.59,18.48,48.21,94.0179,8,43.7143,20.5714,0,18,148.532,1,60,1,30,170.146,44.3791
1445,52.295,24.571,3.215,12.58,3.242,0.154,0,0.515,0,3.391,315,135,972,760.5,176.786,70.7143,0.115,0.3,0.59,20.33,53.04,103.42,8,48.0857,22.6286,0,18,162.305,1,60,1,30,179.871,35.2288
1446,52.295,24.571,3.215,12.58,3.242,0.154,0,0.515,0,3.391,315,135,972,760.5,192.857,77.1429,0.115,0.3,0.59,22.18,57.86,112.821,8,52.4571,24.6857,0,18,176.079,1,60,1,30,189.596,29.5098
1447,49.69,23.918,2.87,15.44,3.906,0.132,0,0.57,0,3.438,216,144,1090.8,774,115.714,46.2857,0.115,0.3,0.59,13.31,34.71,67.6929,8,31.4743,14.8114,0,14.4,107.807,1,60,1,30,136.854,55.6193
1448,49.69,23.918,2.87,15.44,3.906,0.132,0,0.57,0,3.438,216,144,1090.8,774,128.571,51.4286,0.115,0.3,0.59,14.79,38.57,75.2143,8,34.9714,16.4571,0,14.4,118.826,1,60,1,30,144.635,57.3112
1449,49.69,23.918,2.87,15.44,3.906,0.132,0,0.57,0,3.438,216,144,1090.8,774,141.429,56.5714,0.115,0.3,0.59,16.26,42.43,82.7357,8,38.4686,18.1029,0,14.4,129.844,1,60,1,30,152.415,53.2931
1450,49.69,23.918,2.87,15.44,3.906,0.132,0,0.57,0,3.438,216,144,1090.8,774,154.286,61.7143,0.115,0.3,0.59,17.74,46.29,90.2571,8,41.9657,19.7486,0,14.4,140.863,1,60,1,30,160.195,51.1782
1451,49.69,23.918,2.87,15.44,3.906,0.132,0,0.57,0,3.438,252,168,966,810.6,135,54,0.115,0.3,0.59,15.53,40.5,78.975,8,36.72,17.28,0,16.8,125.775,1,60,1,30,154.005,58.8547
1452,49.69,23.918,2.87,15.44,3.906,0.132,0,0.57,0,3.438,252,168,966,810.6,150,60,0.115,0.3,0.59,17.25,45,87.75,8,40.8,19.2,0,16.8,138.63,1,60,1,30,163.082,62.1788
1453,49.69,23.918,2.87,15.44,3.906,0.132,0,0.57,0,3.438,252,168,966,810.6,165,66,0.115,0.3,0.59,18.98,49.5,96.525,8,44.88,21.12,0,16.8,151.485,1,60,1,30,172.159,58.8547
1454,49.69,23.918,2.87,15.44,3.906,0.132,0,0.57,0,3.438,252,168,966,810.6,180,72,0.115,0.3,0.59,20.7,54,105.3,8,48.96,23.04,0,16.8,164.34,1,60,1,30,181.236,56.7039
1455,49.69,23.918,2.87,15.44,3.906,0.132,0,0.57,0,3.438,270,180,972,760.5,144.643,57.8571,0.115,0.3,0.59,16.63,43.39,84.6161,8,39.3429,18.5143,0,18,134.759,1,60,1,30,162.581,56.732
1456,49.69,23.918,2.87,15.44,3.906,0.132,0,0.57,0,3.438,270,180,972,760.5,160.714,64.2857,0.115,0.3,0.59,18.48,48.21,94.0179,8,43.7143,20.5714,0,18,148.532,1,60,1,30,172.306,61.5359
1457,49.69,23.918,2.87,15.44,3.906,0.132,0,0.57,0,3.438,270,180,972,760.5,176.786,70.7143,0.115,0.3,0.59,20.33,53.04,103.42,8,48.0857,22.6286,0,18,162.305,1,60,1,30,182.031,54.2157
1458,49.69,23.918,2.87,15.44,3.906,0.132,0,0.57,0,3.438,270,180,972,760.5,192.857,77.1429,0.115,0.3,0.59,22.18,57.86,112.821,8,52.4571,24.6857,0,18,176.079,1,60,1,30,191.756,49.8693
1459,47.085,23.265,2.525,18.3,4.57,0.11,0,0.625,0,3.485,180,180,1090.8,774,115.714,46.2857,0.115,0.3,0.59,13.31,34.71,67.6929,8,31.4743,14.8114,0,14.4,107.807,1,60,1,30,138.582,61.9637
1460,47.085,23.265,2.525,18.3,4.57,0.11,0,0.625,0,3.485,180,180,1090.8,774,128.571,51.4286,0.115,0.3,0.59,14.79,38.57,75.2143,8,34.9714,16.4571,0,14.4,118.826,1,60,1,30,146.363,65.3474
1461,47.085,23.265,2.525,18.3,4.57,0.11,0,0.625,0,3.485,180,180,1090.8,774,141.429,56.5714,0.115,0.3,0.59,16.26,42.43,82.7357,8,38.4686,18.1029,0,14.4,129.844,1,60,1,30,154.143,53.5045
1462,47.085,23.265,2.525,18.3,4.57,0.11,0,0.625,0,3.485,180,180,1090.8,774,154.286,61.7143,0.115,0.3,0.59,17.74,46.29,90.2571,8,41.9657,19.7486,0,14.4,140.863,1,60,1,30,161.923,52.4471
1463,47.085,23.265,2.525,18.3,4.57,0.11,0,0.625,0,3.485,210,210,966,810.6,135,54,0.115,0.3,0.59,15.53,40.5,78.975,8,36.72,17.28,0,16.8,125.775,1,60,1,30,156.021,56.7039
1464,47.085,23.265,2.525,18.3,4.57,0.11,0,0.625,0,3.485,210,210,966,810.6,150,60,0.115,0.3,0.59,17.25,45,87.75,8,40.8,19.2,0,16.8,138.63,1,60,1,30,165.098,63.5475
1465,47.085,23.265,2.525,18.3,4.57,0.11,0,0.625,0,3.485,210,210,966,810.6,165,66,0.115,0.3,0.59,18.98,49.5,96.525,8,44.88,21.12,0,16.8,151.485,1,60,1,30,174.175,52.0112
1466,47.085,23.265,2.525,18.3,4.57,0.11,0,0.625,0,3.485,210,210,966,810.6,180,72,0.115,0.3,0.59,20.7,54,105.3,8,48.96,23.04,0,16.8,164.34,1,60,1,30,183.252,51.0335
1467,47.085,23.265,2.525,18.3,4.57,0.11,0,0.625,0,3.485,225,225,972,760.5,144.643,57.8571,0.115,0.3,0.59,16.63,43.39,84.6161,8,39.3429,18.5143,0,18,134.759,1,60,1,30,164.741,54.902
1468,47.085,23.265,2.525,18.3,4.57,0.11,0,0.625,0,3.485,225,225,972,760.5,160.714,64.2857,0.115,0.3,0.59,18.48,48.21,94.0179,8,43.7143,20.5714,0,18,148.532,1,60,1,30,174.466,61.9935
1469,47.085,23.265,2.525,18.3,4.57,0.11,0,0.625,0,3.485,225,225,972,760.5,176.786,70.7143,0.115,0.3,0.59,20.33,53.04,103.42,8,48.0857,22.6286,0,18,162.305,1,60,1,30,184.191,54.2157
1470,47.085,23.265,2.525,18.3,4.57,0.11,0,0.625,0,3.485,225,225,972,760.5,192.857,77.1429,0.115,0.3,0.59,22.18,57.86,112.821,8,52.4571,24.6857,0,18,176.079,1,60,1,30,193.916,53.7582
1471,52.295,24.571,3.215,12.58,3.242,0.154,0,0.515,0,3.391,252,108,1090.84,773.955,115.714,46.2857,0.115,0.3,0.59,13.31,34.71,67.6929,8,31.4743,14.8114,0,14.4,107.807,0,25,1,30,112.668,33.83
1472,52.295,24.571,3.215,12.58,3.242,0.154,0,0.515,0,3.391,259,111,1081.56,775.842,118.929,47.5714,0.115,0.3,0.59,13.68,35.68,69.5732,8,32.3486,15.2229,0,14.8,110.802,0,25,1,30,115.514,34.31
1473,52.295,24.571,3.215,12.58,3.242,0.154,0,0.515,0,3.391,266,114,1070.46,776.345,122.143,48.8571,0.115,0.3,0.59,14.05,36.64,71.4536,8,33.2229,15.6343,0,15.2,113.796,0,25,1,30,118.344,34.79
1474,52.295,24.571,3.215,12.58,3.242,0.154,0,0.515,0,3.391,273,117,1057.56,775.436,125.357,50.1429,0.115,0.3,0.59,14.42,37.61,73.3339,8,34.0971,16.0457,0,15.6,116.791,0,25,1,30,121.159,35.27
1475,52.295,24.571,3.215,12.58,3.242,0.154,0,0.515,0,3.391,280,120,1043.05,772.955,128.571,51.4286,0.115,0.3,0.59,14.79,38.57,75.2143,8,34.9714,16.4571,0,16,119.786,0,25,1,30,123.958,35.76
1476,52.295,24.571,3.215,12.58,3.242,0.154,0,0.515,0,3.391,287,123,1026.65,769.15,131.786,52.7143,0.115,0.3,0.59,15.16,39.54,77.0946,8,35.8457,16.8686,0,16.4,122.78,0,25,1,30,126.742,36.24
1477,52.295,24.571,3.215,12.58,3.242,0.154,0,0.515,0,3.391,294,126,1010.93,765.67,135,54,0.115,0.3,0.59,15.53,40.5,78.975,8,36.72,17.28,0,16.8,125.775,0,25,1,30,129.531,36.69
1478,52.295,24.571,3.215,12.58,3.242,0.154,0,0.515,0,3.391,301,129,967.961,795.039,138.214,55.2857,0.115,0.3,0.59,15.89,41.46,80.8554,8,37.5943,17.6914,0,17.2,128.77,0,25,1,30,132.347,35.7
1479,52.295,24.571,3.215,12.58,3.242,0.154,0,0.515,0,3.391,308,132,969.46,777.34,141.429,56.5714,0.115,0.3,0.59,16.26,42.43,82.7357,8,38.4686,18.1029,0,17.6,131.764,0,25,1,30,135.15,34.89
1480,52.295,24.571,3.215,12.58,3.242,0.154,0,0.515,0,3.391,315,135,971.962,760.538,144.643,57.8571,0.115,0.3,0.59,16.63,43.39,84.6161,8,39.3429,18.5143,0,18,134.759,0,25,1,30,137.962,33.81
1481,49.69,23.918,2.87,15.44,3.906,0.132,0,0.57,0,3.438,216,144,1090.84,773.955,115.714,46.2857,0.115,0.3,0.59,13.31,34.71,67.6929,8,31.4743,14.8114,0,14.4,107.807,0,25,1,30,114.396,42.32
1482,49.69,23.918,2.87,15.44,3.906,0.132,0,0.57,0,3.438,222,148,1081.56,775.842,118.929,47.5714,0.115,0.3,0.59,13.68,35.68,69.5732,8,32.3486,15.2229,0,14.8,110.802,0,25,1,30,117.29,42.95
1483,49.69,23.918,2.87,15.44,3.906,0.132,0,0.57,0,3.438,228,152,1070.46,776.345,122.143,48.8571,0.115,0.3,0.59,14.05,36.64,71.4536,8,33.2229,15.6343,0,15.2,113.796,0,25,1,30,120.168,43.58
1484,49.69,23.918,2.87,15.44,3.906,0.132,0,0.57,0,3.438,234,156,1057.56,775.436,125.357,50.1429,0.115,0.3,0.59,14.42,37.61,73.3339,8,34.0971,16.0457,0,15.6,116.791,0,25,1,30,123.031,44.21
1485,49.69,23.918,2.87,15.44,3.906,0.132,0,0.57,0,3.438,240,160,1043.05,772.955,128.571,51.4286,0.115,0.3,0.59,14.79,38.57,75.2143,8,34.9714,16.4571,0,16,119.786,0,25,1,30,125.878,44.85
1486,49.69,23.918,2.87,15.44,3.906,0.132,0,0.57,0,3.438,246,164,1026.65,769.15,131.786,52.7143,0.115,0.3,0.59,15.16,39.54,77.0946,8,35.8457,16.8686,0,16.4,122.78,0,25,1,30,128.71,45.48
1487,49.69,23.918,2.87,15.44,3.906,0.132,0,0.57,0,3.438,252,168,1010.93,765.67,135,54,0.115,0.3,0.59,15.53,40.5,78.975,8,36.72,17.28,0,16.8,125.775,0,25,1,30,131.547,46.08
1488,49.69,23.918,2.87,15.44,3.906,0.132,0,0.57,0,3.438,258,172,967.961,795.039,138.214,55.2857,0.115,0.3,0.59,15.89,41.46,80.8554,8,37.5943,17.6914,0,17.2,128.77,0,25,1,30,134.411,46.01
1489,49.69,23.918,2.87,15.44,3.906,0.132,0,0.57,0,3.438,264,176,969.46,777.34,141.429,56.5714,0.115,0.3,0.59,16.26,42.43,82.7357,8,38.4686,18.1029,0,17.6,131.764,0,25,1,30,137.262,45.96
1490,49.69,23.918,2.87,15.44,3.906,0.132,0,0.57,0,3.438,270,180,971.962,760.538,144.643,57.8571,0.115,0.3,0.59,16.63,43.39,84.6161,8,39.3429,18.5143,0,18,134.759,0,25,1,30,140.122,45.88
1491,47.085,23.265,2.525,18.3,4.57,0.11,0,0.625,0,3.485,180,180,1090.84,773.955,115.714,46.2857,0.115,0.3,0.59,13.31,34.71,67.6929,8,31.4743,14.8114,0,14.4,107.807,0,25,1,30,116.124,55.37
1492,47.085,23.265,2.525,18.3,4.57,0.11,0,0.625,0,3.485,185,185,1081.56,775.842,118.929,47.5714,0.115,0.3,0.59,13.68,35.68,69.5732,8,32.3486,15.2229,0,14.8,110.802,0,25,1,30,119.066,55.62
1493,47.085,23.265,2.525,18.3,4.57,0.11,0,0.625,0,3.485,190,190,1070.46,776.345,122.143,48.8571,0.115,0.3,0.59,14.05,36.64,71.4536,8,33.2229,15.6343,0,15.2,113.796,0,25,1,30,121.992,55.85
1494,47.085,23.265,2.525,18.3,4.57,0.11,0,0.625,0,3.485,195,195,1057.56,775.436,125.357,50.1429,0.115,0.3,0.59,14.42,37.61,73.3339,8,34.0971,16.0457,0,15.6,116.791,0,25,1,30,124.903,56.11
1495,47.085,23.265,2.525,18.3,4.57,0.11,0,0.625,0,3.485,200,200,1043.05,772.955,128.571,51.4286,0.115,0.3,0.59,14.79,38.57,75.2143,8,34.9714,16.4571,0,16,119.786,0,25,1,30,127.798,56.36
1496,47.085,23.265,2.525,18.3,4.57,0.11,0,0.625,0,3.485,205,205,1026.65,769.15,131.786,52.7143,0.115,0.3,0.59,15.16,39.54,77.0946,8,35.8457,16.8686,0,16.4,122.78,0,25,1,30,130.678,56.62
1497,47.085,23.265,2.525,18.3,4.57,0.11,0,0.625,0,3.485,210,210,1010.93,765.67,135,54,0.115,0.3,0.59,15.53,40.5,78.975,8,36.72,17.28,0,16.8,125.775,0,25,1,30,133.563,56.86
1498,47.085,23.265,2.525,18.3,4.57,0.11,0,0.625,0,3.485,215,215,967.961,795.039,138.214,55.2857,0.115,0.3,0.59,15.89,41.46,80.8554,8,37.5943,17.6914,0,17.2,128.77,0,25,1,30,136.475,54.14
1499,47.085,23.265,2.525,18.3,4.57,0.11,0,0.625,0,3.485,220,220,969.46,777.34,141.429,56.5714,0.115,0.3,0.59,16.26,42.43,82.7357,8,38.4686,18.1029,0,17.6,131.764,0,25,1,30,139.374,51.9
1500,47.085,23.265,2.525,18.3,4.57,0.11,0,0.625,0,3.485,225,225,971.962,760.538,144.643,57.8571,0.115,0.3,0.59,16.63,43.39,84.6161,8,39.3429,18.5143,0,18,134.759,0,25,1,30,142.282,48.91
1501,52.295,24.571,3.215,12.58,3.242,0.154,0,0.515,0,3.391,252,108,1090.84,773.955,128.571,51.4286,0.115,0.3,0.59,14.79,38.57,75.2143,8,34.9714,16.4571,0,14.4,118.826,0,25,1,30,120.448,36.19
1502,52.295,24.571,3.215,12.58,3.242,0.154,0,0.515,0,3.391,259,111,1081.56,775.842,132.143,52.8571,0.115,0.3,0.59,15.2,39.64,77.3036,8,35.9429,16.9143,0,14.8,122.126,0,25,1,30,123.51,36.52
1503,52.295,24.571,3.215,12.58,3.242,0.154,0,0.515,0,3.391,266,114,1070.46,776.345,135.714,54.2857,0.115,0.3,0.59,15.61,40.71,79.3929,8,36.9143,17.3714,0,15.2,125.427,0,25,1,30,126.556,36.85
1504,52.295,24.571,3.215,12.58,3.242,0.154,0,0.515,0,3.391,273,117,1057.56,775.436,139.286,55.7143,0.115,0.3,0.59,16.02,41.79,81.4821,8,37.8857,17.8286,0,15.6,128.728,0,25,1,30,129.587,37.18
1505,52.295,24.571,3.215,12.58,3.242,0.154,0,0.515,0,3.391,280,120,1043.05,772.955,142.857,57.1429,0.115,0.3,0.59,16.43,42.86,83.5714,8,38.8571,18.2857,0,16,132.029,0,25,1,30,132.603,37.52
1506,52.295,24.571,3.215,12.58,3.242,0.154,0,0.515,0,3.391,287,123,1026.65,769.15,146.429,58.5714,0.115,0.3,0.59,16.84,43.93,85.6607,8,39.8286,18.7429,0,16.4,135.329,0,25,1,30,135.603,37.85
1507,52.295,24.571,3.215,12.58,3.242,0.154,0,0.515,0,3.391,294,126,1010.93,765.67,150,60,0.115,0.3,0.59,17.25,45,87.75,8,40.8,19.2,0,16.8,138.63,0,25,1,30,138.608,38.16
1508,52.295,24.571,3.215,12.58,3.242,0.154,0,0.515,0,3.391,301,129,967.961,795.039,153.571,61.4286,0.115,0.3,0.59,17.66,46.07,89.8393,8,41.7714,19.6571,0,17.2,141.931,0,25,1,30,141.64,38.43
1509,52.295,24.571,3.215,12.58,3.242,0.154,0,0.515,0,3.391,308,132,969.46,777.34,157.143,62.8571,0.115,0.3,0.59,18.07,47.14,91.9286,8,42.7429,20.1143,0,17.6,145.231,0,25,1,30,144.659,38.66
1510,52.295,24.571,3.215,12.58,3.242,0.154,0,0.515,0,3.391,315,135,971.962,760.538,160.714,64.2857,0.115,0.3,0.59,18.48,48.21,94.0179,8,43.7143,20.5714,0,18,148.532,0,25,1,30,147.687,38.96
1511,49.69,23.918,2.87,15.44,3.906,0.132,0,0.57,0,3.438,216,144,1090.84,773.955,128.571,51.4286,0.115,0.3,0.59,14.79,38.57,75.2143,8,34.9714,16.4571,0,14.4,118.826,0,25,1,30,122.176,47.92
1512,49.69,23.918,2.87,15.44,3.906,0.132,0,0.57,0,3.438,222,148,1081.56,775.842,132.143,52.8571,0.115,0.3,0.59,15.2,39.64,77.3036,8,35.9429,16.9143,0,14.8,122.126,0,25,1,30,125.286,48.47
1513,49.69,23.918,2.87,15.44,3.906,0.132,0,0.57,0,3.438,228,152,1070.46,776.345,135.714,54.2857,0.115,0.3,0.59,15.61,40.71,79.3929,8,36.9143,17.3714,0,15.2,125.427,0,25,1,30,128.38,47.91
1514,49.69,23.918,2.87,15.44,3.906,0.132,0,0.57,0,3.438,234,156,1057.56,775.436,139.286,55.7143,0.115,0.3,0.59,16.02,41.79,81.4821,8,37.8857,17.8286,0,15.6,128.728,0,25,1,30,131.459,48.75
1515,49.69,23.918,2.87,15.44,3.906,0.132,0,0.57,0,3.438,240,160,1043.05,772.955,142.857,57.1429,0.115,0.3,0.59,16.43,42.86,83.5714,8,38.8571,18.2857,0,16,132.029,0,25,1,30,134.523,49.59
1516,49.69,23.918,2.87,15.44,3.906,0.132,0,0.57,0,3.438,246,164,1026.65,769.15,146.429,58.5714,0.115,0.3,0.59,16.84,43.93,85.6607,8,39.8286,18.7429,0,16.4,135.329,0,25,1,30,137.571,50.43
1517,49.69,23.918,2.87,15.44,3.906,0.132,0,0.57,0,3.438,252,168,1010.93,765.67,150,60,0.115,0.3,0.59,17.25,45,87.75,8,40.8,19.2,0,16.8,138.63,0,25,1,30,140.624,51.22
1518,49.69,23.918,2.87,15.44,3.906,0.132,0,0.57,0,3.438,258,172,967.961,795.039,153.571,61.4286,0.115,0.3,0.59,17.66,46.07,89.8393,8,41.7714,19.6571,0,17.2,141.931,0,25,1,30,143.704,51.04
1519,49.69,23.918,2.87,15.44,3.906,0.132,0,0.57,0,3.438,264,176,969.46,777.34,157.143,62.8571,0.115,0.3,0.59,18.07,47.14,91.9286,8,42.7429,20.1143,0,17.6,145.231,0,25,1,30,146.771,50.89
1520,49.69,23.918,2.87,15.44,3.906,0.132,0,0.57,0,3.438,270,180,971.962,760.538,160.714,64.2857,0.115,0.3,0.59,18.48,48.21,94.0179,8,43.7143,20.5714,0,18,148.532,0,25,1,30,149.847,50.69
1521,47.085,23.265,2.525,18.3,4.57,0.11,0,0.625,0,3.485,180,180,1090.84,773.955,128.571,51.4286,0.115,0.3,0.59,14.79,38.57,75.2143,8,34.9714,16.4571,0,14.4,118.826,0,25,1,30,123.904,59.79
1522,47.085,23.265,2.525,18.3,4.57,0.11,0,0.625,0,3.485,185,185,1081.56,775.842,132.143,52.8571,0.115,0.3,0.59,15.2,39.64,77.3036,8,35.9429,16.9143,0,14.8,122.126,0,25,1,30,127.062,59.88
1523,47.085,23.265,2.525,18.3,4.57,0.11,0,0.625,0,3.485,190,190,1070.46,776.345,135.714,54.2857,0.115,0.3,0.59,15.61,40.71,79.3929,8,36.9143,17.3714,0,15.2,125.427,0,25,1,30,130.204,59.98
1524,47.085,23.265,2.525,18.3,4.57,0.11,0,0.625,0,3.485,195,195,1057.56,775.436,139.286,55.7143,0.115,0.3,0.59,16.02,41.79,81.4821,8,37.8857,17.8286,0,15.6,128.728,0,25,1,30,133.331,60.08
1525,47.085,23.265,2.525,18.3,4.57,0.11,0,0.625,0,3.485,200,200,1043.05,772.955,142.857,57.1429,0.115,0.3,0.59,16.43,42.86,83.5714,8,38.8571,18.2857,0,16,132.029,0,25,1,30,136.443,60.18
1526,47.085,23.265,2.525,18.3,4.57,0.11,0,0.625,0,3.485,205,205,1026.65,769.15,146.429,58.5714,0.115,0.3,0.59,16.84,43.93,85.6607,8,39.8286,18.7429,0,16.4,135.329,0,25,1,30,139.539,60.28
1527,47.085,23.265,2.525,18.3,4.57,0.11,0,0.625,0,3.485,210,210,1010.93,765.67,150,60,0.115,0.3,0.59,17.25,45,87.75,8,40.8,19.2,0,16.8,138.63,0,25,1,30,142.64,60.38
1528,47.085,23.265,2.525,18.3,4.57,0.11,0,0.625,0,3.485,215,215,967.961,795.039,153.571,61.4286,0.115,0.3,0.59,17.66,46.07,89.8393,8,41.7714,19.6571,0,17.2,141.931,0,25,1,30,145.768,59.75
1529,47.085,23.265,2.525,18.3,4.57,0.11,0,0.625,0,3.485,220,220,969.46,777.34,157.143,62.8571,0.115,0.3,0.59,18.07,47.14,91.9286,8,42.7429,20.1143,0,17.6,145.231,0,25,1,30,148.883,59.23
1530,47.085,23.265,2.525,18.3,4.57,0.11,0,0.625,0,3.485,225,225,971.962,760.538,160.714,64.2857,0.115,0.3,0.59,18.48,48.21,94.0179,8,43.7143,20.5714,0,18,148.532,0,25,1,30,152.007,58.53
1531,52.295,24.571,3.215,12.58,3.242,0.154,0,0.515,0,3.391,252,108,1090.84,773.955,141.429,56.5714,0.115,0.3,0.59,16.26,42.43,82.7357,8,38.4686,18.1029,0,14.4,129.844,0,25,1,30,128.228,31.11
1532,52.295,24.571,3.215,12.58,3.242,0.154,0,0.515,0,3.391,259,111,1081.56,775.842,145.357,58.1429,0.115,0.3,0.59,16.72,43.61,85.0339,8,39.5371,18.6057,0,14.8,133.451,0,25,1,30,131.506,30.27
1533,52.295,24.571,3.215,12.58,3.242,0.154,0,0.515,0,3.391,266,114,1070.46,776.345,149.286,59.7143,0.115,0.3,0.59,17.17,44.79,87.3321,8,40.6057,19.1086,0,15.2,137.058,0,25,1,30,134.768,29.43
1534,52.295,24.571,3.215,12.58,3.242,0.154,0,0.515,0,3.391,273,117,1057.56,775.436,153.214,61.2857,0.115,0.3,0.59,17.62,45.96,89.6304,8,41.6743,19.6114,0,15.6,140.665,0,25,1,30,138.015,28.6
1535,52.295,24.571,3.215,12.58,3.242,0.154,0,0.515,0,3.391,280,120,1043.05,772.955,157.143,62.8571,0.115,0.3,0.59,18.07,47.14,91.9286,8,42.7429,20.1143,0,16,144.271,0,25,1,30,141.247,27.77
1536,52.295,24.571,3.215,12.58,3.242,0.154,0,0.515,0,3.391,287,123,1026.65,769.15,161.071,64.4286,0.115,0.3,0.59,18.52,48.32,94.2268,8,43.8114,20.6171,0,16.4,147.878,0,25,1,30,144.463,26.95
1537,52.295,24.571,3.215,12.58,3.242,0.154,0,0.515,0,3.391,294,126,1010.93,765.67,165,66,0.115,0.3,0.59,18.98,49.5,96.525,8,44.88,21.12,0,16.8,151.485,0,25,1,30,147.684,26.17
1538,52.295,24.571,3.215,12.58,3.242,0.154,0,0.515,0,3.391,301,129,967.961,795.039,168.929,67.5714,0.115,0.3,0.59,19.43,50.68,98.8232,8,45.9486,21.6229,0,17.2,155.092,0,25,1,30,150.932,26.01
1539,52.295,24.571,3.215,12.58,3.242,0.154,0,0.515,0,3.391,308,132,969.46,777.34,172.857,69.1429,0.115,0.3,0.59,19.88,51.86,101.121,8,47.0171,22.1257,0,17.6,158.699,0,25,1,30,154.168,25.88
1540,52.295,24.571,3.215,12.58,3.242,0.154,0,0.515,0,3.391,315,135,971.962,760.538,176.786,70.7143,0.115,0.3,0.59,20.33,53.04,103.42,8,48.0857,22.6286,0,18,162.305,0,25,1,30,157.413,25.71
1541,49.69,23.918,2.87,15.44,3.906,0.132,0,0.57,0,3.438,216,144,1090.84,773.955,141.429,56.5714,0.115,0.3,0.59,16.26,42.43,82.7357,8,38.4686,18.1029,0,14.4,129.844,0,25,1,30,129.956,46.87
1542,49.69,23.918,2.87,15.44,3.906,0.132,0,0.57,0,3.438,222,148,1081.56,775.842,145.357,58.1429,0.115,0.3,0.59,16.72,43.61,85.0339,8,39.5371,18.6057,0,14.8,133.451,0,25,1,30,133.282,46.49
1543,49.69,23.918,2.87,15.44,3.906,0.132,0,0.57,0,3.438,228,152,1070.46,776.345,149.286,59.7143,0.115,0.3,0.59,17.17,44.79,87.3321,8,40.6057,19.1086,0,15.2,137.058,0,25,1,30,136.592,46.12
1544,49.69,23.918,2.87,15.44,3.906,0.132,0,0.57,0,3.438,234,156,1057.56,775.436,153.214,61.2857,0.115,0.3,0.59,17.62,45.96,89.6304,8,41.6743,19.6114,0,15.6,140.665,0,25,1,30,139.887,45.75
1545,49.69,23.918,2.87,15.44,3.906,0.132,0,0.57,0,3.438,240,160,1043.05,772.955,157.143,62.8571,0.115,0.3,0.59,18.07,47.14,91.9286,8,42.7429,20.1143,0,16,144.271,0,25,1,30,143.167,45.38
1546,49.69,23.918,2.87,15.44,3.906,0.132,0,0.57,0,3.438,246,164,1026.65,769.15,161.071,64.4286,0.115,0.3,0.59,18.52,48.32,94.2268,8,43.8114,20.6171,0,16.4,147.878,0,25,1,30,146.431,45.02
1547,49.69,23.918,2.87,15.44,3.906,0.132,0,0.57,0,3.438,252,168,1010.93,765.67,165,66,0.115,0.3,0.59,18.98,49.5,96.525,8,44.88,21.12,0,16.8,151.485,0,25,1,30,149.7,44.67
1548,49.69,23.918,2.87,15.44,3.906,0.132,0,0.57,0,3.438,258,172,967.961,795.039,168.929,67.5714,0.115,0.3,0.59,19.43,50.68,98.8232,8,45.9486,21.6229,0,17.2,155.092,0,25,1,30,152.996,43.71
1549,49.69,23.918,2.87,15.44,3.906,0.132,0,0.57,0,3.438,264,176,969.46,777.34,172.857,69.1429,0.115,0.3,0.59,19.88,51.86,101.121,8,47.0171,22.1257,0,17.6,158.699,0,25,1,30,156.28,42.91
1550,49.69,23.918,2.87,15.44,3.906,0.132,0,0.57,0,3.438,270,180,971.962,760.538,176.786,70.7143,0.115,0.3,0.59,20.33,53.04,103.42,8,48.0857,22.6286,0,18,162.305,0,25,1,30,159.573,41.85
1551,47.085,23.265,2.525,18.3,4.57,0.11,0,0.625,0,3.485,180,180,1090.84,773.955,141.429,56.5714,0.115,0.3,0.59,16.26,42.43,82.7357,8,38.4686,18.1029,0,14.4,129.844,0,25,1,30,131.684,51.61
1552,47.085,23.265,2.525,18.3,4.57,0.11,0,0.625,0,3.485,185,185,1081.56,775.842,145.357,58.1429,0.115,0.3,0.59,16.72,43.61,85.0339,8,39.5371,18.6057,0,14.8,133.451,0,25,1,30,135.058,50.73
1553,47.085,23.265,2.525,18.3,4.57,0.11,0,0.625,0,3.485,190,190,1070.46,776.345,149.286,59.7143,0.115,0.3,0.59,17.17,44.79,87.3321,8,40.6057,19.1086,0,15.2,137.058,0,25,1,30,138.416,49.86
1554,47.085,23.265,2.525,18.3,4.57,0.11,0,0.625,0,3.485,195,195,1057.56,775.436,153.214,61.2857,0.115,0.3,0.59,17.62,45.96,89.6304,8,41.6743,19.6114,0,15.6,140.665,0,25,1,30,141.759,49
1555,47.085,23.265,2.525,18.3,4.57,0.11,0,0.625,0,3.485,200,200,1043.05,772.955,157.143,62.8571,0.115,0.3,0.59,18.07,47.14,91.9286,8,42.7429,20.1143,0,16,144.271,0,25,1,30,145.087,48.14
1556,47.085,23.265,2.525,18.3,4.57,0.11,0,0.625,0,3.485,205,205,1026.65,769.15,161.071,64.4286,0.115,0.3,0.59,18.52,48.32,94.2268,8,43.8114,20.6171,0,16.4,147.878,0,25,1,30,148.399,47.28
1557,47.085,23.265,2.525,18.3,4.57,0.11,0,0.625,0,3.485,210,210,1010.93,765.67,165,66,0.115,0.3,0.59,18.98,49.5,96.525,8,44.88,21.12,0,16.8,151.485,0,25,1,30,151.716,46.48
1558,47.085,23.265,2.525,18.3,4.57,0.11,0,0.625,0,3.485,215,215,967.961,795.039,168.929,67.5714,0.115,0.3,0.59,19.43,50.68,98.8232,8,45.9486,21.6229,0,17.2,155.092,0,25,1,30,155.06,47.15
1559,47.085,23.265,2.525,18.3,4.57,0.11,0,0.625,0,3.485,220,220,969.46,777.34,172.857,69.1429,0.115,0.3,0.59,19.88,51.86,101.121,8,47.0171,22.1257,0,17.6,158.699,0,25,1,30,158.392,47.71
1560,47.085,23.265,2.525,18.3,4.57,0.11,0,0.625,0,3.485,225,225,971.962,760.538,176.786,70.7143,0.115,0.3,0.59,20.33,53.04,103.42,8,48.0857,22.6286,0,18,162.305,0,25,1,30,161.733,48.45
1561,52.295,24.571,3.215,12.58,3.242,0.154,0,0.515,0,3.391,252,108,1090.84,773.955,154.286,61.7143,0.115,0.3,0.59,17.74,46.29,90.2571,8,41.9657,19.7486,0,14.4,140.863,0,25,1,30,136.008,25.71
1562,52.295,24.571,3.215,12.58,3.242,0.154,0,0.515,0,3.391,259,111,1081.56,775.842,158.571,63.4286,0.115,0.3,0.59,18.24,47.57,92.7643,8,43.1314,20.2971,0,14.8,144.776,0,25,1,30,139.502,25.6
1563,52.295,24.571,3.215,12.58,3.242,0.154,0,0.515,0,3.391,266,114,1070.46,776.345,162.857,65.1429,0.115,0.3,0.59,18.73,48.86,95.2714,8,44.2971,20.8457,0,15.2,148.689,0,25,1,30,142.981,25.5
1564,52.295,24.571,3.215,12.58,3.242,0.154,0,0.515,0,3.391,273,117,1057.56,775.436,167.143,66.8571,0.115,0.3,0.59,19.22,50.14,97.7786,8,45.4629,21.3943,0,15.6,152.601,0,25,1,30,146.444,25.4
1565,52.295,24.571,3.215,12.58,3.242,0.154,0,0.515,0,3.391,280,120,1043.05,772.955,171.429,68.5714,0.115,0.3,0.59,19.71,51.43,100.286,8,46.6286,21.9429,0,16,156.514,0,25,1,30,149.892,25.3
1566,52.295,24.571,3.215,12.58,3.242,0.154,0,0.515,0,3.391,287,123,1026.65,769.15,175.714,70.2857,0.115,0.3,0.59,20.21,52.71,102.793,8,47.7943,22.4914,0,16.4,160.427,0,25,1,30,153.324,25.2
1567,52.295,24.571,3.215,12.58,3.242,0.154,0,0.515,0,3.391,294,126,1010.93,765.67,180,72,0.115,0.3,0.59,20.7,54,105.3,8,48.96,23.04,0,16.8,164.34,0,25,1,30,156.761,25.11
1568,52.295,24.571,3.215,12.58,3.242,0.154,0,0.515,0,3.391,301,129,967.961,795.039,184.286,73.7143,0.115,0.3,0.59,21.19,55.29,107.807,8,50.1257,23.5886,0,17.2,168.253,0,25,1,30,160.225,23.62
1569,52.295,24.571,3.215,12.58,3.242,0.154,0,0.515,0,3.391,308,132,969.46,777.34,188.571,75.4286,0.115,0.3,0.59,21.69,56.57,110.314,8,51.2914,24.1371,0,17.6,172.166,0,25,1,30,163.677,22.4
1570,52.295,24.571,3.215,12.58,3.242,0.154,0,0.515,0,3.391,315,135,971.962,760.538,192.857,77.1429,0.115,0.3,0.59,22.18,57.86,112.821,8,52.4571,24.6857,0,18,176.079,0,25,1,30,167.138,20.76
1571,49.69,23.918,2.87,15.44,3.906,0.132,0,0.57,0,3.438,216,144,1090.84,773.955,154.286,61.7143,0.115,0.3,0.59,17.74,46.29,90.2571,8,41.9657,19.7486,0,14.4,140.863,0,25,1,30,137.736,43.38
1572,49.69,23.918,2.87,15.44,3.906,0.132,0,0.57,0,3.438,222,148,1081.56,775.842,158.571,63.4286,0.115,0.3,0.59,18.24,47.57,92.7643,8,43.1314,20.2971,0,14.8,144.776,0,25,1,30,141.278,46.2
1573,49.69,23.918,2.87,15.44,3.906,0.132,0,0.57,0,3.438,228,152,1070.46,776.345,162.857,65.1429,0.115,0.3,0.59,18.73,48.86,95.2714,8,44.2971,20.8457,0,15.2,148.689,0,25,1,30,144.805,46.27
1574,49.69,23.918,2.87,15.44,3.906,0.132,0,0.57,0,3.438,234,156,1057.56,775.436,167.143,66.8571,0.115,0.3,0.59,19.22,50.14,97.7786,8,45.4629,21.3943,0,15.6,152.601,0,25,1,30,148.316,46.35
1575,49.69,23.918,2.87,15.44,3.906,0.132,0,0.57,0,3.438,240,160,1043.05,772.955,171.429,68.5714,0.115,0.3,0.59,19.71,51.43,100.286,8,46.6286,21.9429,0,16,156.514,0,25,1,30,151.812,46.42
1576,49.69,23.918,2.87,15.44,3.906,0.132,0,0.57,0,3.438,246,164,1026.65,769.15,175.714,70.2857,0.115,0.3,0.59,20.21,52.71,102.793,8,47.7943,22.4914,0,16.4,160.427,0,25,1,30,155.292,46.5
1577,49.69,23.918,2.87,15.44,3.906,0.132,0,0.57,0,3.438,252,168,1010.93,765.67,180,72,0.115,0.3,0.59,20.7,54,105.3,8,48.96,23.04,0,16.8,164.34,0,25,1,30,158.777,46.57
1578,49.69,23.918,2.87,15.44,3.906,0.132,0,0.57,0,3.438,258,172,967.961,795.039,184.286,73.7143,0.115,0.3,0.59,21.19,55.29,107.807,8,50.1257,23.5886,0,17.2,168.253,0,25,1,30,162.289,46.27
1579,49.69,23.918,2.87,15.44,3.906,0.132,0,0.57,0,3.438,264,176,969.46,777.34,188.571,75.4286,0.115,0.3,0.59,21.69,56.57,110.314,8,51.2914,24.1371,0,17.6,172.166,0,25,1,30,165.789,46.01
1580,49.69,23.918,2.87,15.44,3.906,0.132,0,0.57,0,3.438,270,180,971.962,760.538,192.857,77.1429,0.115,0.3,0.59,22.18,57.86,112.821,8,52.4571,24.6857,0,18,176.079,0,25,1,30,169.298,45.68
1581,47.085,23.265,2.525,18.3,4.57,0.11,0,0.625,0,3.485,180,180,1090.84,773.955,154.286,61.7143,0.115,0.3,0.59,17.74,46.29,90.2571,8,41.9657,19.7486,0,14.4,140.863,0,25,1,30,139.464,46.68
1582,47.085,23.265,2.525,18.3,4.57,0.11,0,0.625,0,3.485,185,185,1081.56,775.842,158.571,63.4286,0.115,0.3,0.59,18.24,47.57,92.7643,8,43.1314,20.2971,0,14.8,144.776,0,25,1,30,143.054,46.84
1583,47.085,23.265,2.525,18.3,4.57,0.11,0,0.625,0,3.485,190,190,1070.46,776.345,162.857,65.1429,0.115,0.3,0.59,18.73,48.86,95.2714,8,44.2971,20.8457,0,15.2,148.689,0,25,1,30,146.629,46.98
1584,47.085,23.265,2.525,18.3,4.57,0.11,0,0.625,0,3.485,195,195,1057.56,775.436,167.143,66.8571,0.115,0.3,0.59,19.22,50.14,97.7786,8,45.4629,21.3943,0,15.6,152.601,0,25,1,30,150.188,47.13
1585,47.085,23.265,2.525,18.3,4.57,0.11,0,0.625,0,3.485,200,200,1043.05,772.955,171.429,68.5714,0.115,0.3,0.59,19.71,51.43,100.286,8,46.6286,21.9429,0,16,156.514,0,25,1,30,153.732,47.28
1586,47.085,23.265,2.525,18.3,4.57,0.11,0,0.625,0,3.485,205,205,1026.65,769.15,175.714,70.2857,0.115,0.3,0.59,20.21,52.71,102.793,8,47.7943,22.4914,0,16.4,160.427,0,25,1,30,157.26,47.43
1587,47.085,23.265,2.525,18.3,4.57,0.11,0,0.625,0,3.485,210,210,1010.93,765.67,180,72,0.115,0.3,0.59,20.7,54,105.3,8,48.96,23.04,0,16.8,164.34,0,25,1,30,160.793,47.57
1588,47.085,23.265,2.525,18.3,4.57,0.11,0,0.625,0,3.485,215,215,967.961,795.039,184.286,73.7143,0.115,0.3,0.59,21.19,55.29,107.807,8,50.1257,23.5886,0,17.2,168.253,0,25,1,30,164.353,47.59
1589,47.085,23.265,2.525,18.3,4.57,0.11,0,0.625,0,3.485,220,220,969.46,777.34,188.571,75.4286,0.115,0.3,0.59,21.69,56.57,110.314,8,51.2914,24.1371,0,17.6,172.166,0,25,1,30,167.901,47.61
1590,47.085,23.265,2.525,18.3,4.57,0.11,0,0.625,0,3.485,225,225,971.962,760.538,192.857,77.1429,0.115,0.3,0.59,22.18,57.86,112.821,8,52.4571,24.6857,0,18,176.079,0,25,1,30,171.458,47.64
1591,52.295,24.571,3.215,12.58,3.242,0.154,0,0.515,0,3.391,252,108,973,770,113.143,84.8571,0.115,0.3,0.59,13.01,33.94,66.1886,8,57.7029,27.1543,0,14.4,132.531,1,60,1,30,157.253,33.68
1592,52.295,24.571,3.215,12.58,3.242,0.154,0,0.515,0,3.391,259,111,1081,776.39,116.286,87.2143,0.115,0.3,0.59,13.37,34.89,68.0271,8,59.3057,27.9086,0,14.8,136.213,0,25,1,30,138.855,31.44
1593,49.69,23.918,2.87,15.44,3.906,0.132,0,0.57,0,3.438,216,144,973,770,113.143,84.8571,0.115,0.3,0.59,13.01,33.94,66.1886,8,57.7029,27.1543,0,14.4,132.531,1,60,1,30,158.981,51.53
1594,49.69,23.918,2.87,15.44,3.906,0.132,0,0.57,0,3.438,240,160,1042.38,773.6,137.143,102.857,0.115,0.3,0.59,15.77,41.14,80.2286,8,69.9429,32.9143,0,16,159.771,0,25,1,30,160.479,44.89
1595,47.085,23.265,2.525,18.3,4.57,0.11,0,0.625,0,3.485,185,185,1081,776.39,116.286,87.2143,0.115,0.3,0.59,13.37,34.89,68.0271,8,59.3057,27.9086,0,14.8,136.213,1,60,1,30,164.866,62.25
1596,47.085,23.265,2.525,18.3,4.57,0.11,0,0.625,0,3.485,215,215,966.12,796.87,122.857,92.1429,0.115,0.3,0.59,14.13,36.86,71.8714,8,62.6571,29.4857,0,17.2,144.849,0,25,1,30,153.532,57.84
1604,43.59,19.185,1.8775,28.005,5.28,0.2325,0.8325,0.085,0.0325,0.23,120,360,552.8,810.6,160,80,0.147,0.294,0.559,23.52,47.04,89.44,2,73.6,6.4,131.9,0,294.94,0,24,1,24,95.60032,12.4762
1605,43.59,19.185,1.8775,28.005,5.28,0.2325,0.8325,0.085,0.0325,0.23,120,360,550.6,807.4,171.4,68.6,0.147,0.294,0.559,25.2,50.39,95.8126,2,63.112,5.488,138.2,0,297.1246,0,24,1,24,97.93192,11.4552
1606,43.59,19.185,1.8775,28.005,5.28,0.2325,0.8325,0.085,0.0325,0.23,120,360,549,804.9,180,60,0.147,0.294,0.559,26.46,52.92,100.62,2,55.2,4.8,142.9,0,298.72,0,24,1,24,99.69072,11.0138
1607,43.59,19.185,1.8775,28.005,5.28,0.2325,0.8325,0.085,0.0325,0.23,120,360,547.7,803.1,186.7,53.4,0.147,0.294,0.559,27.44,54.89,104.3653,2,49.128,4.272,146.6,0,300.0933,0,24,1,24,101.077,9.53802
1608,43.59,19.185,1.8775,28.005,5.28,0.2325,0.8325,0.085,0.0325,0.23,120,360,546.6,801.5,192,48,0.147,0.294,0.559,28.22,56.45,107.328,2,44.16,3.84,149.5,0,300.988,0,24,1,24,102.144,8.47597
1609,43.59,19.185,1.8775,28.005,5.28,0.2325,0.8325,0.085,0.0325,0.23,120,360,545.8,800.3,196.4,43.7,0.147,0.294,0.559,28.87,57.74,109.7876,2,40.204,3.496,151.9,0,301.8916,0,24,1,24,103.06,8.03376
1610,43.59,19.185,1.8775,28.005,5.28,0.2325,0.8325,0.085,0.0325,0.23,120,360,545.8,800.3,160,80,0.147,0.294,0.559,23.52,47.04,89.44,4,67.2,12.8,140.4,0,297.04,0,24,1,24,107.773,25.9967
1611,43.59,19.185,1.8775,28.005,5.28,0.2325,0.8325,0.085,0.0325,0.23,120,360,544.6,798.6,171.4,68.6,0.147,0.294,0.559,25.2,50.39,95.8126,4,57.624,10.976,145.4,0,298.8366,0,24,1,24,108.3704,26.4399
1612,43.59,19.185,1.8775,28.005,5.28,0.2325,0.8325,0.085,0.0325,0.23,120,360,543.7,787.2,180,60,0.147,0.294,0.559,26.46,52.92,100.62,4,50.4,9.6,149.3,0,300.32,0,24,1,24,108.772,23.8675
1613,43.59,19.185,1.8775,28.005,5.28,0.2325,0.8325,0.085,0.0325,0.23,120,360,543,796.2,186.7,53.3,0.147,0.294,0.559,27.44,54.89,104.3653,4,44.772,8.528,152.2,0,301.3373,0,24,1,24,109.171,20.909
1614,43.59,19.185,1.8775,28.005,5.28,0.2325,0.8325,0.085,0.0325,0.23,120,360,542.4,795.4,192,48.1,0.147,0.294,0.559,28.22,56.45,107.328,4,40.404,7.696,154.6,0,302.332,0,24,1,24,109.479,16.8676
1615,43.59,19.185,1.8775,28.005,5.28,0.2325,0.8325,0.085,0.0325,0.23,120,360,542,794.7,196.4,43.6,0.147,0.294,0.559,28.87,57.74,109.7876,4,36.624,6.976,156.5,0,302.9116,0,24,1,24,109.6792,12.9032
1616,43.59,19.185,1.8775,28.005,5.28,0.2325,0.8325,0.085,0.0325,0.23,120,360,539.7,791.4,160,80,0.147,0.294,0.559,23.52,47.04,89.44,6,60.8,19.2,147.7,0,297.94,0,24,1,24,119.957,38.5173
1617,43.59,19.185,1.8775,28.005,5.28,0.2325,0.8325,0.085,0.0325,0.23,120,360,539.4,790.9,171.4,68.5,0.147,0.294,0.559,25.2,50.39,95.8126,6,52.06,16.44,151.7,0,299.5726,0,24,1,24,118.772,36.9526
1618,43.59,19.185,1.8775,28.005,5.28,0.2325,0.8325,0.085,0.0325,0.23,120,360,539.1,790.5,180,60,0.147,0.294,0.559,26.46,52.92,100.62,6,45.6,14.4,154.8,0,301.02,0,24,1,24,117.958,35.5006
1619,43.59,19.185,1.8775,28.005,5.28,0.2325,0.8325,0.085,0.0325,0.23,120,360,538.9,790.3,186.7,53.4,0.147,0.294,0.559,27.44,54.89,104.3653,6,40.584,12.816,157.1,0,302.0493,0,24,1,24,117.3348,33.5856
1620,43.59,19.185,1.8775,28.005,5.28,0.2325,0.8325,0.085,0.0325,0.23,120,360,538.8,790,192,48,0.147,0.294,0.559,28.22,56.45,107.328,6,36.48,11.52,159,0,302.808,0,24,1,24,116.759,28.2022
1621,43.59,19.185,1.8775,28.005,5.28,0.2325,0.8325,0.085,0.0325,0.23,120,360,538.7,789.8,196.4,43.6,0.147,0.294,0.559,28.87,57.74,109.7876,6,33.136,10.464,150.6,0,293.5236,0,24,1,24,116.319,26.2869
1622,43.59,19.185,1.8775,28.005,5.28,0.2325,0.8325,0.085,0.0325,0.23,120,360,534.4,783.5,160,80,0.147,0.294,0.559,23.52,47.04,89.44,8,54.4,25.6,154.2,0,298.04,0,24,1,24,132.15,49.8769
1623,43.59,19.185,1.8775,28.005,5.28,0.2325,0.8325,0.085,0.0325,0.23,120,360,534.8,784.2,171.4,68.6,0.147,0.294,0.559,25.2,50.39,95.8126,8,46.648,21.952,157.3,0,299.7606,0,24,1,24,129.273,47.3402
1624,43.59,19.185,1.8775,28.005,5.28,0.2325,0.8325,0.085,0.0325,0.23,120,360,535.1,784.6,180,60,0.147,0.294,0.559,26.46,52.92,100.62,8,40.8,19.2,159.6,0,301.02,0,24,1,24,127.103,44.8013
1625,43.59,19.185,1.8775,28.005,5.28,0.2325,0.8325,0.085,0.0325,0.23,120,360,535.4,785,186.7,53.4,0.147,0.294,0.559,27.44,54.89,104.3653,8,36.312,17.088,161.4,0,302.0773,0,24,1,24,125.473,43.6449
1626,43.59,19.185,1.8775,28.005,5.28,0.2325,0.8325,0.085,0.0325,0.23,120,360,535.6,785.3,192,48,0.147,0.294,0.559,28.22,56.45,107.328,8,32.64,15.36,162.9,0,302.868,0,24,1,24,124.075,40.4923
1627,43.59,19.185,1.8775,28.005,5.28,0.2325,0.8325,0.085,0.0325,0.23,120,360,535.7,785.6,196.4,43.6,0.147,0.294,0.559,28.87,57.74,109.7876,8,29.648,13.952,164.1,0,303.5356,0,24,1,24,122.964,39.1869
1628,43.59,19.185,1.8775,28.005,5.28,0.2325,0.8325,0.085,0.0325,0.23,120,360,529.6,776.6,160,80,0.147,0.294,0.559,23.52,47.04,89.44,10,48,32,159.9,0,297.34,0,24,1,24,144.35,57.8378
1629,43.59,19.185,1.8775,28.005,5.28,0.2325,0.8325,0.085,0.0325,0.23,120,360,530.7,778.2,171.4,68.6,0.147,0.294,0.559,25.2,50.39,95.8126,10,41.16,27.44,162.2,0,299.1726,0,24,1,24,139.734,56.2162
1630,43.59,19.185,1.8775,28.005,5.28,0.2325,0.8325,0.085,0.0325,0.23,120,360,531.6,779.4,180,60,0.147,0.294,0.559,26.46,52.92,100.62,10,36,24,163.9,0,300.52,0,24,1,24,136.2528,54.2342
1631,43.59,19.185,1.8775,28.005,5.28,0.2325,0.8325,0.085,0.0325,0.23,120,360,532.2,780.4,186.7,53.4,0.147,0.294,0.559,27.44,54.89,104.3653,10,32.04,21.36,165.2,0,301.6053,0,24,1,24,133.617,52.4324
1632,43.59,19.185,1.8775,28.005,5.28,0.2325,0.8325,0.085,0.0325,0.23,120,360,532.7,781.1,192,48,0.147,0.294,0.559,28.22,56.45,107.328,10,28.8,19.2,166.3,0,302.428,0,24,1,24,131.394,52.7928
1633,43.59,19.185,1.8775,28.005,5.28,0.2325,0.8325,0.085,0.0325,0.23,120,360,533.2,781.8,196.4,43.7,0.147,0.294,0.559,28.87,57.74,109.7876,10,26.22,17.48,167.2,0,303.2076,0,24,1,24,129.6902,47.7477
1634,43.59,19.185,1.8775,28.005,5.28,0.2325,0.8325,0.085,0.0325,0.23,120,360,525.4,770.4,160,80,0.147,0.294,0.559,23.52,47.04,89.44,12,41.6,38.4,165,0,296.04,0,24,1,24,156.556,59.1157
1635,43.59,19.185,1.8775,28.005,5.28,0.2325,0.8325,0.085,0.0325,0.23,120,360,527.1,772.9,171.4,68.6,0.147,0.294,0.559,25.2,50.39,95.8126,12,35.672,32.928,166.6,0,298.0846,0,24,1,24,150.201,57.9035
1636,43.59,19.185,1.8775,28.005,5.28,0.2325,0.8325,0.085,0.0325,0.23,120,360,528.4,774.8,180,60,0.147,0.294,0.559,26.46,52.92,100.62,12,31.2,28.8,167.7,0,299.52,0,24,1,24,145.407,57.597
1637,43.59,19.185,1.8775,28.005,5.28,0.2325,0.8325,0.085,0.0325,0.23,120,360,529.4,776.2,186.7,53.4,0.147,0.294,0.559,27.44,54.89,104.3653,12,27.768,25.632,168.6,0,300.7333,0,24,1,24,141.764,56.205
1638,43.59,19.185,1.8775,28.005,5.28,0.2325,0.8325,0.085,0.0325,0.23,120,360,530.2,777.4,192,48,0.147,0.294,0.559,28.22,56.45,107.328,12,24.96,23.04,169.4,0,301.688,0,24,1,24,138.718,54.9901
1639,43.59,19.185,1.8775,28.005,5.28,0.2325,0.8325,0.085,0.0325,0.23,120,360,530.8,778.4,196.4,43.7,0.147,0.294,0.559,28.87,57.74,109.7876,12,22.724,20.976,170,0,302.5116,0,24,1,24,136.3572,49.2549
1682,42.04,33.6,4,12.73,0,0,0,0,0,0,427,0,1276.8,547,106.75,42.7,0.147,0.294,0.559,15.69,31.38,59.67325,8,29.036,13.664,0,0,88.70925,1,40,0,24,84.6838,33.86
1683,42.04,33.6,4,12.73,0,0,0,0,0,0,427,0,1276.8,547,106.75,42.7,0.147,0.294,0.559,15.69,31.38,59.67325,8,29.036,13.664,0,0,88.70925,1,60,0,24,97.5171,35.2
1684,42.04,33.6,4,12.73,0,0,0,0,0,0,427,0,1276.8,547,106.75,42.7,0.147,0.294,0.559,15.69,31.38,59.67325,8,29.036,13.664,0,0,88.70925,1,80,0,24,110.35,38.17
1685,42.04,33.6,4,12.73,0,0,0,0,0,0,427,0,1276.8,547,106.75,42.7,0.147,0.294,0.559,15.69,31.38,59.67325,8,29.036,13.664,0,0,88.70925,1,100,0,24,123.1838,38.88
1686,42.04,33.6,4,12.73,0,0,0,0,0,0,427,0,1276.8,547,106.75,42.7,0.147,0.294,0.559,15.69,31.38,59.67325,10,25.62,17.08,0,0,85.29325,1,40,0,24,91.22544,37.63
1687,42.04,33.6,4,12.73,0,0,0,0,0,0,427,0,1276.8,547,106.75,42.7,0.147,0.294,0.559,15.69,31.38,59.67325,10,25.62,17.08,0,0,85.29325,1,60,0,24,104.059,39.21
1688,42.04,33.6,4,12.73,0,0,0,0,0,0,427,0,1276.8,547,106.75,42.7,0.147,0.294,0.559,15.69,31.38,59.67325,10,25.62,17.08,0,0,85.29325,1,80,0,24,116.892,42.11
1689,42.04,33.6,4,12.73,0,0,0,0,0,0,427,0,1276.8,547,106.75,42.7,0.147,0.294,0.559,15.69,31.38,59.67325,10,25.62,17.08,0,0,85.29325,1,100,0,24,129.725,43.5
1690,42.04,33.6,4,12.73,0,0,0,0,0,0,427,0,1276.8,547,106.75,42.7,0.147,0.294,0.559,15.69,31.38,59.67325,12,22.204,20.496,0,0,81.87725,1,40,0,24,97.76708,40.33
1691,42.04,33.6,4,12.73,0,0,0,0,0,0,427,0,1276.8,547,106.75,42.7,0.147,0.294,0.559,15.69,31.38,59.67325,12,22.204,20.496,0,0,81.87725,1,60,0,24,110.6,41.82
1692,42.04,33.6,4,12.73,0,0,0,0,0,0,427,0,1276.8,547,106.75,42.7,0.147,0.294,0.559,15.69,31.38,59.67325,12,22.204,20.496,0,0,81.87725,1,80,0,24,123.434,44.47
1693,42.04,33.6,4,12.73,0,0,0,0,0,0,427,0,1276.8,547,106.75,42.7,0.147,0.294,0.559,15.69,31.38,59.67325,12,22.204,20.496,0,0,81.87725,1,100,0,24,136.267,44.89
1694,42.04,33.6,4,12.73,0,0,0,0,0,0,427,0,1276.8,547,106.75,42.7,0.147,0.294,0.559,15.69,31.38,59.67325,14,18.788,23.912,0,0,78.46125,1,40,0,24,104.309,42.57
1695,42.04,33.6,4,12.73,0,0,0,0,0,0,427,0,1276.8,547,106.75,42.7,0.147,0.294,0.559,15.69,31.38,59.67325,14,18.788,23.912,0,0,78.46125,1,60,0,24,117.142,43.54
1696,42.04,33.6,4,12.73,0,0,0,0,0,0,427,0,1276.8,547,106.75,42.7,0.147,0.294,0.559,15.69,31.38,59.67325,14,18.788,23.912,0,0,78.46125,1,80,0,24,129.975,46.23
1697,42.04,33.6,4,12.73,0,0,0,0,0,0,427,0,1276.8,547,106.75,42.7,0.147,0.294,0.559,15.69,31.38,59.67325,14,18.788,23.912,0,0,78.46125,1,100,0,24,142.809,46.86
1698,42.04,33.6,4,12.73,0,0,0,0,0,0,427,0,1276.8,547,106.75,42.7,0.147,0.294,0.559,15.69,31.38,59.67325,16,15.372,27.328,0,0,75.04525,1,40,0,24,110.85,40.73
1699,42.04,33.6,4,12.73,0,0,0,0,0,0,427,0,1276.8,547,106.75,42.7,0.147,0.294,0.559,15.69,31.38,59.67325,16,15.372,27.328,0,0,75.04525,1,60,0,24,123.684,41.93
1700,42.04,33.6,4,12.73,0,0,0,0,0,0,427,0,1276.8,547,106.75,42.7,0.147,0.294,0.559,15.69,31.38,59.67325,16,15.372,27.328,0,0,75.04525,1,80,0,24,136.517,44.67
1701,42.04,33.6,4,12.73,0,0,0,0,0,0,427,0,1276.8,547,106.75,42.7,0.147,0.294,0.559,15.69,31.38,59.67325,16,15.372,27.328,0,0,75.04525,1,100,0,24,149.35,45.37
1702,42.04,33.6,4,12.73,0,0,0,0,0,0,427,0,1276.8,547,76.25,30.5,0.147,0.294,0.559,11.21,22.42,42.62375,14,13.42,17.08,0,0,56.04375,1,80,0,24,105.912,42.37
1703,42.04,33.6,4,12.73,0,0,0,0,0,0,427,0,1276.8,547,91.5,36.6,0.147,0.294,0.559,13.45,26.9,51.1485,14,16.104,20.496,0,0,67.2525,1,80,0,24,117.944,44.67
1704,42.04,33.6,4,12.73,0,0,0,0,0,0,427,0,1276.8,547,122,48.8,0.147,0.294,0.559,17.93,35.87,68.198,14,21.472,27.328,0,0,89.67,1,80,0,24,142.007,46.16
1705,42.04,33.6,4,12.73,0,0,0,0,0,0,427,0,1276.8,547,137.25,54.9,0.147,0.294,0.559,20.18,40.35,76.72275,14,24.156,30.744,0,0,100.879,1,80,0,24,154.039,45.87
1706,42.04,33.6,4,12.73,0,0,0,0,0,0,427,0,1276.8,547,114.962,34.4885,0.147,0.294,0.559,16.9,33.8,64.2635,14,15.1749,19.3135,0,0,79.4384,1,80,0,24,124.125,45.65
1707,42.04,33.6,4,12.73,0,0,0,0,0,0,427,0,1276.8,547,110.704,38.7463,0.147,0.294,0.559,16.27,32.55,61.8834,14,17.0484,21.6979,0,0,78.9317,1,80,0,24,127.159,46.16
1708,42.04,33.6,4,12.73,0,0,0,0,0,0,427,0,1276.8,547,103.069,46.381,0.147,0.294,0.559,15.15,30.3,57.6156,14,20.4077,25.9734,0,0,78.0232,1,80,0,24,132.598,45.57
1709,42.04,33.6,4,12.73,0,0,0,0,0,0,427,0,1276.8,547,99.6333,49.8167,0.147,0.294,0.559,14.65,29.29,55.695,14,21.9193,27.8973,0,0,77.6144,1,80,0,24,135.045,43.89
1710,42.04,33.6,4,12.73,0,0,0,0,0,0,427,0,1276.8,547,106.75,42.7,0.147,0.294,0.559,15.69,31.38,59.67325,14,18.788,23.912,0,0,78.46125,1,60,1,24,117.142,46.86
1711,42.04,33.6,4,12.73,0,0,0,0,0,0,427,0,1276.8,547,106.75,42.7,0.147,0.294,0.559,15.69,31.38,59.67325,14,18.788,23.912,0,0,78.46125,1,60,2,24,117.142,47.58
1712,42.04,33.6,4,12.73,0,0,0,0,0,0,427,0,1276.8,547,106.75,42.7,0.147,0.294,0.559,15.69,31.38,59.67325,14,18.788,23.912,0,0,78.46125,1,60,3,24,117.142,47.92