File: DS_cube_100_1_Strength.csv
Idx_Sample,SiO2,Al2O3,Fe2O3,CaO,MgO,Na2O,K2O,SO3,TiO2,P2O5,SrO,Mn2O3,MnO,LOI,FA (kg/m3),GGBFS (kg/m3),SF (kg/m3),Coarse aggregate (kg/m3),Fine aggregate (kg/m3),Na2SiO3,NaOH,Na2SiO3 specific gravity,Total solution,Na2O (l),Sio2 (l),H2O,Na2O (Dry),Sio2 (Dry),Water,Total NaOH,Concentration (M) NaOH,Water,NaOH (Dry),Additional water,Superplasticizer,water -eff,Initial curing time (day),Initial curing temp (C),Final curing temp (C),Mixture CO2 (Na2SiO3 as solution),1-d Cubic compressive strength (MPa)
192,51.3,30.1,4.57,8.73,0,0,1.56,1.4,0.698,1.6,0,0,0,0,400,0,0,950,850,143,57,0,143,0.1426,0.2943,0.56,20.39,42.08,80.5233,57,12,29.64,27.36,48,28,174.9633,1,70,24,195.6294,45.01
193,51.3,30.1,4.57,8.73,0,0,1.56,1.4,0.698,1.6,0,0,0,0,400,0,0,950,850,143,57,0,143,0.1426,0.2943,0.56,20.39,42.08,80.5233,57,12,29.64,27.36,48,28,174.9633,2,70,24,224.5044,51.03
194,51.3,30.1,4.57,8.73,0,0,1.56,1.4,0.698,1.6,0,0,0,0,400,0,0,950,850,143,57,0,143,0.1426,0.2943,0.56,20.39,42.08,80.5233,57,12,29.64,27.36,48,28,174.9633,3,70,24,253.3794,51.41
195,51.3,30.1,4.57,8.73,0,0,1.56,1.4,0.698,1.6,0,0,0,0,400,0,0,950,850,143,57,0,143,0.1426,0.2943,0.56,20.39,42.08,80.5233,57,12,29.64,27.36,48,28,174.9633,4,70,24,282.2544,51.68
196,51.3,30.1,4.57,8.73,0,0,1.56,1.4,0.698,1.6,0,0,0,0,400,0,0,950,850,143,57,0,143,0.1426,0.2943,0.56,20.39,42.08,80.5233,57,12,29.64,27.36,48,28,174.9633,2,60,24,211.671,44.81
197,51.3,30.1,4.57,8.73,0,0,1.56,1.4,0.698,1.6,0,0,0,0,400,0,0,950,850,143,57,0,143,0.1426,0.2943,0.56,20.39,42.08,80.5233,57,12,29.64,27.36,48,28,174.9633,2,70,24,224.5044,51.03
198,51.3,30.1,4.57,8.73,0,0,1.56,1.4,0.698,1.6,0,0,0,0,400,0,0,950,850,143,57,0,143,0.1426,0.2943,0.56,20.39,42.08,80.5233,57,12,29.64,27.36,48,28,174.9633,2,80,24,237.338,48.56
199,51.3,30.1,4.57,8.73,0,0,1.56,1.4,0.698,1.6,0,0,0,0,400,0,0,950,850,143,57,0,143,0.1426,0.2943,0.56,20.39,42.08,80.5233,57,12,29.64,27.36,48,28,174.9633,2,90,24,250.171,47.99
416,51.3,30.1,4.57,8.73,0,0,1.56,1.4,0.7,1.6,0,0,0,0,400,0,0,950,850,143,57,0,143,0.1436,0.2943,0.56,20.53,42.08,80.3803,57,8,38.76,18.24,48,24,181.5403,2,70,24,199.5196,46.98
417,53.245,28.636,4.425,8.3555,0,0,1.683,1.4,0.665,1.52,0,0,0,0,400,0,20,950,850,143,58,0,143,0.1436,0.2943,0.56,20.53,42.08,80.3803,58,10,34.8,23.2,48,24,177.5803,2,70,24,209.298,48.22
418,55.19,27.172,4.28,7.981,0,0,1.806,1.4,0.63,1.44,0,0,0,0,400,0,40,950,850,143,59,0,143,0.1436,0.2943,0.56,20.53,42.08,80.3803,59,12,30.68,28.32,48,24,173.4603,2,70,24,219.3828,50.25
419,57.135,25.708,4.135,7.6065,0,0,1.929,1.4,0.595,1.36,0,0,0,0,400,0,60,950,850,143,60,0,143,0.1436,0.2943,0.56,20.53,42.08,80.3803,60,14,26.4,33.6,48,24,169.1803,2,70,24,229.774,48.84
481,57.3,27.13,8.06,0.03,2.13,0.73,0,1.06,0,0,0,0,0,1.6,428,0,0,1170,630,122,49,0,122,0.1684,0.3501,0.48,20.54,42.71,58.743,49,14,21.56,27.44,43,8.5,128.403,1,75,24,154.883,30
482,57.3,27.13,8.06,0.03,2.13,0.73,0,1.06,0,0,0,0,0,1.6,444,0,0,1170,630,111,44,0,111,0.1684,0.3501,0.48,18.69,38.86,53.4465,44,14,19.36,24.64,43,9,121.2065,1,75,24,146.565,30
483,57.3,27.13,8.06,0.03,2.13,0.73,0,1.06,0,0,0,0,0,1.6,428,0,0,1170,630,114,57,0,114,0.1684,0.3501,0.48,19.2,39.91,54.891,57,14,25.08,31.92,43,8.5,128.071,1,75,24,160.582,40
484,57.3,27.13,8.06,0.03,2.13,0.73,0,1.06,0,0,0,0,0,1.6,428,0,0,1170,630,122,49,0,122,0.1684,0.3501,0.48,20.54,42.71,58.743,49,14,21.56,27.44,43,8.5,128.403,1,75,24,154.883,28
485,57.3,27.13,8.06,0.03,2.13,0.73,0,1.06,0,0,0,0,0,1.6,428,0,0,1170,630,122,49,0,122,0.1684,0.3501,0.48,20.54,42.71,58.743,49,14,21.56,27.44,43,8.5,128.403,2,75,24,186.966,32
486,57.3,27.13,8.06,0.03,2.13,0.73,0,1.06,0,0,0,0,0,1.6,428,0,0,1170,630,122,49,0,122,0.1684,0.3501,0.48,20.54,42.71,58.743,49,14,21.56,27.44,43,8.5,128.403,2,75,24,186.966,32
487,57.3,27.13,8.06,0.03,2.13,0.73,0,1.06,0,0,0,0,0,1.6,428,0,0,1170,630,122,49,0,122,0.1684,0.3501,0.48,20.54,42.71,58.743,49,14,21.56,27.44,43,13,131.103,2,75,24,195.426,30
488,57.3,27.13,8.06,0.03,2.13,0.73,0,1.06,0,0,0,0,0,1.6,428,0,0,1170,630,122,49,0,122,0.1684,0.3501,0.48,20.54,42.71,58.743,49,14,21.56,27.44,43,17,133.503,2,75,24,202.946,29
489,57.3,27.13,8.06,0.03,2.13,0.73,0,1.06,0,0,0,0,0,1.6,428,0,0,1170,630,122,49,0,122,0.1684,0.3501,0.48,20.54,42.71,58.743,49,14,21.56,27.44,43,8.5,128.403,2,75,24,186.966,36
490,57.3,27.13,8.06,0.03,2.13,0.73,0,1.06,0,0,0,0,0,1.6,428,0,0,1170,630,122,49,0,122,0.1684,0.3501,0.48,20.54,42.71,58.743,49,14,21.56,27.44,43,8.5,128.403,2,75,24,186.966,45
491,57.3,27.13,8.06,0.03,2.13,0.73,0,1.06,0,0,0,0,0,1.6,428,0,0,1170,630,114,57,0,114,0.1684,0.3501,0.48,19.2,39.91,54.891,57,8,38.76,18.24,43,4.3,139.231,1,75,24,126.489,32
492,57.3,27.13,8.06,0.03,2.13,0.73,0,1.06,0,0,0,0,0,1.6,428,0,0,1170,630,114,57,0,114,0.1684,0.3501,0.48,19.2,39.91,54.891,57,10,34.2,22.8,43,4.3,134.671,1,75,24,135.221,35
493,57.3,27.13,8.06,0.03,2.13,0.73,0,1.06,0,0,0,0,0,1.6,428,0,0,1170,630,114,57,0,114,0.1684,0.3501,0.48,19.2,39.91,54.891,57,12,29.64,27.36,43,4.3,130.111,1,75,24,143.954,43
494,57.3,27.13,8.06,0.03,2.13,0.73,0,1.06,0,0,0,0,0,1.6,428,0,0,1170,630,114,57,0,114,0.1684,0.3501,0.48,19.2,39.91,54.891,57,14,25.08,31.92,43,4.3,125.551,1,75,24,152.686,46
495,57.3,27.13,8.06,0.03,2.13,0.73,0,1.06,0,0,0,0,0,1.6,428,0,0,1170,630,114,57,0,114,0.1684,0.3501,0.48,19.2,39.91,54.891,57,14,25.08,31.92,43,4.3,125.551,1,60,24,143.061,38
496,57.3,27.13,8.06,0.03,2.13,0.73,0,1.06,0,0,0,0,0,1.6,428,0,0,1170,630,114,57,0,114,0.1684,0.3501,0.48,19.2,39.91,54.891,57,14,25.08,31.92,43,4.3,125.551,1,75,24,152.686,46
497,57.3,27.13,8.06,0.03,2.13,0.73,0,1.06,0,0,0,0,0,1.6,428,0,0,1170,630,114,57,0,114,0.1684,0.3501,0.48,19.2,39.91,54.891,57,14,25.08,31.92,43,4.3,125.551,1,90,24,162.311,49
735,61.3,29.4,3.27,1.21,0.75,0.73,1.2,0.003,0.01,0,0,0,0,0.45,350,0,0,1167,777,118.09,59.22,1.53,59.22,0.137,0.294,0.57,8.11,17.41,33.69618,118.09,10,70.854,47.236,0,0,104.55,1,60,24,166.159,12.7
738,61.3,29.4,3.27,1.21,0.75,0.73,1.2,0.003,0.01,0,0,0,0,0.45,350,0,0,1167,777,118.09,59.22,1.53,59.22,0.137,0.294,0.57,8.11,17.41,33.69618,118.09,14,51.9596,66.1304,0,0,85.65578,1,60,24,202.342,14.6
741,61.3,29.4,3.27,1.21,0.75,0.73,1.2,0.003,0.01,0,0,0,0,0.45,350,0,0,1167,777,118.09,59.22,1.53,59.22,0.137,0.294,0.57,8.11,17.41,33.69618,118.09,16,42.5124,75.5776,0,0,76.20858,1,60,24,220.433,13.5
744,61.3,29.4,3.27,1.21,0.75,0.73,1.2,0.003,0.01,0,0,0,0,0.45,450,0,0,1051,700,150.52,75.48,1.53,59.22,0.137,0.294,0.57,8.11,17.41,33.69618,118.09,10,70.854,47.236,0,0,104.55,1,60,24,177.307,14.3
747,61.3,29.4,3.27,1.21,0.75,0.73,1.2,0.003,0.01,0,0,0,0,0.45,450,0,0,1051,700,150.52,75.48,1.53,59.22,0.137,0.294,0.57,8.11,17.41,33.69618,118.09,14,51.9596,66.1304,0,0,85.65578,1,60,24,213.49,15.9
750,61.3,29.4,3.27,1.21,0.75,0.73,1.2,0.003,0.01,0,0,0,0,0.45,450,0,0,1051,700,150.52,75.48,1.53,59.22,0.137,0.294,0.57,8.11,17.41,33.69618,118.09,16,42.5124,75.5776,0,0,76.20858,1,60,24,231.581,16.6
1021,39.8065,17.9952,5.62716,18.8643,3.57837,0.954125,2.82354,1.24467,0.897704,0.101868,0.0520233,0.234358,0,3.10109,308,206,0,935,615,121,99,0,121,0.128,0.255,0.62,15.49,30.86,74.657,99,10,59.4,39.6,75,0,209.057,0,25,24,138.778,12.2
1022,39.82,18.004,5.634,18.832,3.574,0.954,2.826,1.244,0.898,0.102,0.052,0.234,0,3.102,270,180,0,1030,670,106,87,0,106,0.128,0.255,0.62,13.57,27.03,65.402,87,10,52.2,34.8,65,0,182.602,0,25,24,123.402,14.6
1023,39.82,18.004,5.634,18.832,3.574,0.954,2.826,1.244,0.898,0.102,0.052,0.234,0,3.102,240,160,0,1110,720,94,77,0,94,0.128,0.255,0.62,12.03,23.97,57.998,77,10,46.2,30.8,55,0,159.198,0,25,24,110.886,8.2
1024,39.82,18.004,5.634,18.832,3.574,0.954,2.826,1.244,0.898,0.102,0.052,0.234,0,3.102,210,140,0,1170,760,82,68,0,82,0.128,0.255,0.62,10.5,20.91,50.594,68,10,40.8,27.2,50,0,141.394,0,25,24,98.992,2.8
1025,39.82,18.004,5.634,18.832,3.574,0.954,2.826,1.244,0.898,0.102,0.052,0.234,0,3.102,210,140,0,1155,750,82,68,0,82,0.128,0.255,0.62,10.5,20.91,50.594,68,10,40.8,27.2,60,0,151.394,0,25,24,98.872,4
1026,39.82,18.004,5.634,18.832,3.574,0.954,2.826,1.244,0.898,0.102,0.052,0.234,0,3.102,240,160,0,1070,710,94,77,0,94,0.128,0.255,0.62,12.03,23.97,57.998,77,10,46.2,30.8,70,0,174.198,0,25,24,110.646,14.7
1027,39.82,18.004,5.634,18.832,3.574,0.954,2.826,1.244,0.898,0.102,0.052,0.234,0,3.102,270,180,0,1050,690,106,87,0,106,0.128,0.255,0.62,13.57,27.03,65.402,87,10,52.2,34.8,50,0,167.602,0,25,24,123.594,15.3
1028,39.82,18.004,5.634,18.832,3.574,0.954,2.826,1.244,0.898,0.102,0.052,0.234,0,3.102,210,140,0,1120,730,83,67,0,83,0.128,0.255,0.62,10.62,21.17,51.211,67,10,40.2,26.8,80,0,171.411,0,25,24,98.202,3.4
1029,39.8287,18.0097,5.63842,18.8112,3.57118,0.95392,2.82759,1.24357,0.898191,0.102085,0.0519849,0.233769,0,3.10259,239,159,0,1111,721,94,77,0,94,0.128,0.255,0.62,12.03,23.97,57.998,77,10,46.2,30.8,52,0,156.198,0,25,24,110.8396,12.6
1030,39.8291,18.0099,5.63859,18.8103,3.57107,0.953916,2.82765,1.24355,0.898198,0.102089,0.0519843,0.23376,0,3.10261,230,153,0,1111,721,90,74,0,90,0.128,0.255,0.62,11.52,22.95,55.53,74,10,44.4,29.6,63,0,162.93,0,25,24,106.7536,7.9
1031,39.8292,18.01,5.63865,18.8101,3.57103,0.953915,2.82767,1.24354,0.898201,0.10209,0.0519841,0.233757,0,3.10262,227,151,0,1111,721,89,73,0,89,0.128,0.255,0.62,11.39,22.7,54.913,73,10,43.8,29.2,66,0,164.713,0,25,24,105.5116,8.7
1032,39.8296,18.0102,5.63884,18.8091,3.57091,0.953912,2.82774,1.24353,0.898209,0.102094,0.0519835,0.233747,0,3.10264,218,145,0,1111,721,86,70,0,86,0.128,0.255,0.62,11.01,21.93,53.062,70,10,42,28,76,0,171.062,0,25,24,101.7856,11.6
1033,39.82,18.004,5.634,18.832,3.574,0.954,2.826,1.244,0.898,0.102,0.052,0.234,0,3.102,219,146,0,1145,742,86,70,0,86,0.128,0.255,0.62,11.01,21.93,53.062,70,10,42,28,56,0,151.062,0,25,24,102.1056,10.7
1034,39.82,18.004,5.634,18.832,3.574,0.954,2.826,1.244,0.898,0.102,0.052,0.234,0,3.102,216,144,0,1145,742,85,69,0,85,0.128,0.255,0.62,10.88,21.68,52.445,69,10,41.4,27.6,59,0,152.845,0,25,24,100.8636,9.5
1035,39.82,18.004,5.634,18.832,3.574,0.954,2.826,1.244,0.898,0.102,0.052,0.234,0,3.102,213,142,0,1145,742,84,69,0,84,0.128,0.255,0.62,10.75,21.42,51.828,69,10,41.4,27.6,62,0,155.228,0,25,24,100.3876,9.8
1036,39.83,18.0105,5.63905,18.8082,3.57078,0.953908,2.82782,1.24351,0.898218,0.102098,0.0519828,0.233736,0,3.10267,209,139,0,1160,753,82,67,0,82,0.128,0.255,0.62,10.5,20.91,50.594,67,10,40.2,26.8,57,0,147.794,0,25,24,98.0884,12.8
1037,39.7995,17.9907,5.62363,18.8809,3.58062,0.954189,2.82227,1.24501,0.897552,0.101799,0.0520354,0.234543,0,3.10062,203,136,0,1160,753,80,65,0,80,0.128,0.255,0.62,10.24,20.4,49.36,65,10,39,26,63,0,151.36,0,25,24,95.6564,9.3
1038,39.82,18.004,5.634,18.832,3.574,0.954,2.826,1.244,0.898,0.102,0.052,0.234,0,3.102,198,132,0,1160,753,78,64,0,78,0.128,0.255,0.62,9.98,19.89,48.126,64,10,38.4,25.6,69,0,155.526,0,25,24,93.9424,1.3
1231,46.78,22.52,9.15,2.24,1.33,0.89,4.09,0.9,1.05,0.17,0,0,0.05,3.57,391,0,0,1111,721,92,75,0,92,0.128,0.255,0.62,11.78,23.46,56.764,75,7.5,52.5,22.5,0,0,109.264,28,70,65,895.0651,11.4587
1232,46.78,22.52,9.15,2.24,1.33,0.89,4.09,0.9,1.05,0.17,0,0,0.05,3.57,380,0,0,1111,721,89,73,0,89,0.128,0.255,0.62,11.39,22.7,54.913,73,7.5,51.1,21.9,0,0,106.013,28,70,65,892.7921,11.0445
1233,46.78,22.52,9.15,2.24,1.33,0.89,4.09,0.9,1.05,0.17,0,0,0.05,3.57,371,0,0,1111,721,87,72,0,87,0.128,0.255,0.62,11.14,22.19,53.679,72,7.5,50.4,21.6,0,0,104.079,28,70,65,891.4616,8.40817
1234,46.78,22.52,9.15,2.24,1.33,0.89,4.09,0.9,1.05,0.17,0,0,0.05,3.57,367,0,0,1145,742,86,71,0,86,0.128,0.255,0.62,11.01,21.93,53.062,71,7.5,49.7,21.3,0,0,102.762,28,70,65,890.7751,13.308
1235,46.78,22.52,9.15,2.24,1.33,0.89,4.09,0.9,1.05,0.17,0,0,0.05,3.57,357,0,0,1145,742,84,69,0,84,0.128,0.255,0.62,10.75,21.42,51.828,69,7.5,48.3,20.7,0,0,100.128,28,70,65,888.8661,10.6697
1236,46.78,22.52,9.15,2.24,1.33,0.89,4.09,0.9,1.05,0.17,0,0,0.05,3.57,348,0,0,1145,742,82,67,0,82,0.128,0.255,0.62,10.5,20.91,50.594,67,7.5,46.9,20.1,0,0,97.494,28,70,65,886.9611,7.65918
1237,46.78,22.52,9.15,2.24,1.33,0.89,4.09,0.9,1.05,0.17,0,0,0.05,3.57,355,0,0,1160,753,84,69,0,84,0.128,0.255,0.62,10.75,21.42,51.828,69,7.5,48.3,20.7,0,0,100.128,28,70,65,888.9829,12.9217
1238,46.78,22.52,9.15,2.24,1.33,0.89,4.09,0.9,1.05,0.17,0,0,0.05,3.57,346,0,0,1160,753,81,67,0,81,0.128,0.255,0.62,10.37,20.66,49.977,67,7.5,46.9,20.1,0,0,96.877,28,70,65,886.7179,9.54465
1239,46.78,22.52,9.15,2.24,1.33,0.89,4.09,0.9,1.05,0.17,0,0,0.05,3.57,337,0,0,1160,753,79,65,0,79,0.128,0.255,0.62,10.11,20.15,48.743,65,7.5,45.5,19.5,0,0,94.243,28,70,65,884.8129,8.01941
1240,43.3175,20.2734,7.40086,10.4942,2.44635,0.921839,3.46118,1.07113,0.974383,0.136171,0,0,0.141537,3.33718,318,79,0,1111,721,93,77,0,93,0.128,0.255,0.62,11.9,23.72,57.381,77,7.5,53.9,23.1,0,0,111.281,0,20,24,91.8901,8.11786
1241,43.309,20.2678,7.39655,10.5145,2.44909,0.921917,3.45964,1.07155,0.974197,0.136088,0,0,0.141762,3.33661,309,77,0,1111,721,91,75,0,91,0.128,0.255,0.62,11.65,23.21,56.147,75,7.5,52.5,22.5,0,0,108.647,0,20,24,89.8811,6.57833
1242,43.3093,20.268,7.39668,10.5139,2.44902,0.921915,3.45968,1.07154,0.974202,0.13609,0,0,0.141755,3.33662,301,75,0,1111,721,89,73,0,89,0.128,0.255,0.62,11.39,22.7,54.913,73,7.5,51.1,21.9,0,0,106.013,0,20,24,87.8761,6.14739
1243,43.319,20.2743,7.40158,10.4908,2.44589,0.921826,3.46144,1.07106,0.974414,0.136185,0,0,0.141499,3.33728,294,73,0,1111,721,86,71,0,86,0.128,0.255,0.62,11.01,21.93,53.062,71,7.5,49.7,21.3,0,0,102.762,0,20,24,85.5151,4.60786
1244,43.2904,20.2558,7.38717,10.5588,2.45508,0.922088,3.45626,1.07247,0.973791,0.135907,0,0,0.142253,3.33536,291,73,0,1145,742,85,70,0,85,0.128,0.255,0.62,10.88,21.68,52.445,70,7.5,49,21,0,0,101.445,0,20,24,84.8326,6.44899
1245,43.2902,20.2556,7.38703,10.5594,2.45517,0.92209,3.45621,1.07249,0.973785,0.135904,0,0,0.14226,3.33534,283,71,0,1145,742,83,68,0,83,0.128,0.255,0.62,10.62,21.17,51.211,68,7.5,47.6,20.4,0,0,98.811,0,20,24,82.8276,4.53656
1246,43.3,20.262,7.392,10.536,2.452,0.922,3.458,1.072,0.974,0.136,0,0,0.142,3.336,276,69,0,1145,742,81,67,0,81,0.128,0.255,0.62,10.37,20.66,49.977,67,7.5,46.9,20.1,0,0,96.877,0,20,24,81.4011,4.1031
1247,43.3096,20.2683,7.39687,10.513,2.44889,0.921911,3.45975,1.07152,0.974211,0.136094,0,0,0.141745,3.33665,289,72,0,1160,753,85,70,0,85,0.128,0.255,0.62,10.88,21.68,52.445,70,7.5,49,21,0,0,101.445,0,20,24,84.8974,6.36507
1248,43.3099,20.2684,7.39701,10.5124,2.4488,0.921909,3.4598,1.07151,0.974217,0.136097,0,0,0.141738,3.33667,281,70,0,1160,753,83,68,0,83,0.128,0.255,0.62,10.62,21.17,51.211,68,7.5,47.6,20.4,0,0,98.811,0,20,24,82.8924,6.30955
1249,43.3204,20.2752,7.40228,10.4875,2.44544,0.921813,3.4617,1.07099,0.974444,0.136199,0,0,0.141462,3.33737,274,68,0,1160,753,81,66,0,81,0.128,0.255,0.62,10.37,20.66,49.977,66,7.5,46.2,19.8,0,0,96.177,0,20,24,80.8914,5.13786
1250,43.2896,20.2552,7.38674,10.5608,2.45536,0.922096,3.45611,1.07251,0.973772,0.135898,0,0,0.142275,3.3353,267,67,0,1160,753,79,64,0,79,0.128,0.255,0.62,10.11,20.15,48.743,64,7.5,44.8,19.2,0,0,93.543,0,20,24,78.9424,3.9687
1251,39.8287,18.0097,5.63842,18.8112,3.57118,0.95392,2.82759,1.24357,0.898191,0.102085,0,0,0.233769,3.10259,239,159,0,1111,721,94,77,0,94,0.128,0.255,0.62,12.03,23.97,57.998,77,7.5,53.9,23.1,0,0,111.898,0,20,24,96.0941,11.2842
1252,39.8291,18.0099,5.63859,18.8103,3.57107,0.953916,2.82765,1.24355,0.898198,0.102089,0,0,0.23376,3.10261,230,153,0,1111,721,90,74,0,90,0.128,0.255,0.62,11.52,22.95,55.53,74,7.5,51.8,22.2,0,0,107.33,0,20,24,92.5826,6.75086
1253,39.8292,18.01,5.63865,18.8101,3.57103,0.953915,2.82767,1.24354,0.898201,0.10209,0,0,0.233757,3.10262,227,151,0,1111,721,89,73,0,89,0.128,0.255,0.62,11.39,22.7,54.913,73,7.5,51.1,21.9,0,0,106.013,0,20,24,91.5321,8.01798
1254,39.8296,18.0102,5.63884,18.8091,3.57091,0.953912,2.82774,1.24353,0.898209,0.102094,0,0,0.233747,3.10264,218,145,0,1111,721,86,70,0,86,0.128,0.255,0.62,11.01,21.93,53.062,70,7.5,49,21,0,0,102.062,0,20,24,88.3806,10.986
1255,39.82,18.004,5.634,18.832,3.574,0.954,2.826,1.244,0.898,0.102,0,0,0.234,3.102,219,146,0,1145,742,86,70,0,86,0.128,0.255,0.62,11.01,21.93,53.062,70,7.5,49,21,0,0,102.062,0,20,24,88.7006,9.93293
1256,39.82,18.004,5.634,18.832,3.574,0.954,2.826,1.244,0.898,0.102,0,0,0.234,3.102,216,144,0,1145,742,85,69,0,85,0.128,0.255,0.62,10.88,21.68,52.445,69,7.5,48.3,20.7,0,0,100.745,0,20,24,87.6501,8.70148
1257,39.82,18.004,5.634,18.832,3.574,0.954,2.826,1.244,0.898,0.102,0,0,0.234,3.102,213,142,0,1145,742,84,69,0,84,0.128,0.255,0.62,10.75,21.42,51.828,69,7.5,48.3,20.7,0,0,100.128,0,20,24,87.1741,9.13527
1258,39.83,18.0105,5.63905,18.8082,3.57078,0.953908,2.82782,1.24351,0.898218,0.102098,0,0,0.233736,3.10267,209,139,0,1160,753,82,67,0,82,0.128,0.255,0.62,10.5,20.91,50.594,67,7.5,46.9,20.1,0,0,97.494,0,20,24,85.2579,12.7354
1259,39.7995,17.9907,5.62363,18.8809,3.58062,0.954189,2.82227,1.24501,0.897552,0.101799,0,0,0.234543,3.10062,203,136,0,1160,753,80,65,0,80,0.128,0.255,0.62,10.24,20.4,49.36,65,7.5,45.5,19.5,0,0,94.86,0,20,24,83.2089,9.02112
1260,39.82,18.004,5.634,18.832,3.574,0.954,2.826,1.244,0.898,0.102,0,0,0.234,3.102,198,132,0,1160,753,78,64,0,78,0.128,0.255,0.62,9.98,19.89,48.126,64,7.5,44.8,19.2,0,0,92.926,0,20,24,81.6864,1.13584
1261,34.5954,14.614,2.99467,31.287,5.25849,1.00204,1.87716,1.50223,0.783899,0.0509549,0,0,0.372122,2.75069,113,264,0,1111,721,89,73,0,89,0.128,0.255,0.62,11.39,22.7,54.913,73,7.5,51.1,21.9,0,0,106.013,0,20,24,96.9521,31.436
1262,34.6145,14.6264,3.00435,31.2413,5.25231,1.00187,1.88064,1.50128,0.784318,0.0511421,0,0,0.371616,2.75198,108,251,0,1111,721,84,69,0,84,0.128,0.255,0.62,10.75,21.42,51.828,69,7.5,48.3,20.7,0,0,100.128,0,20,24,92.1581,21.5984
1263,34.6,14.617,2.997,31.276,5.257,1.002,1.878,1.502,0.784,0.051,0,0,0.372,2.751,105,245,0,1111,721,82,68,0,82,0.128,0.255,0.62,10.5,20.91,50.594,68,7.5,47.6,20.4,0,0,98.194,0,20,24,90.5396,28.8996
1264,34.5902,14.6106,2.99203,31.2994,5.26017,1.00209,1.87621,1.50249,0.783785,0.050904,0,0,0.37226,2.75034,106,248,0,1145,742,83,68,0,83,0.128,0.255,0.62,10.62,21.17,51.211,68,7.5,47.6,20.4,0,0,98.811,0,20,24,91.3236,32.0282
1265,34.5948,14.6136,2.99439,31.2883,5.25866,1.00205,1.87706,1.50226,0.783887,0.0509496,0,0,0.372136,2.75065,101,236,0,1145,742,79,65,0,79,0.128,0.255,0.62,10.11,20.15,48.743,65,7.5,45.5,19.5,0,0,94.243,0,20,24,87.5161,18.8529
1266,34.6159,14.6273,3.00502,31.2382,5.25188,1.00185,1.88088,1.50122,0.784347,0.051155,0,0,0.371581,2.75207,99,230,0,1145,742,77,63,0,77,0.128,0.255,0.62,9.86,19.64,47.509,63,7.5,44.1,18.9,0,0,91.609,0,20,24,85.3271,27.2652
1267,34.6051,14.6203,2.99956,31.2639,5.25536,1.00195,1.87892,1.50175,0.784111,0.0510496,0,0,0.371866,2.75134,103,240,0,1160,753,81,66,0,81,0.128,0.255,0.62,10.37,20.66,49.977,66,7.5,46.2,19.8,0,0,96.177,0,20,24,89.1514,34.1152
1268,34.6107,14.6239,3.00239,31.2506,5.25356,1.0019,1.87994,1.50147,0.784233,0.0511043,0,0,0.371718,2.75172,98,228,0,1160,753,77,63,0,77,0.128,0.255,0.62,9.86,19.64,47.509,63,7.5,44.1,18.9,0,0,91.609,0,20,24,85.3439,21.685
1269,34.5781,14.6028,2.98594,31.3282,5.26406,1.0022,1.87403,1.50308,0.783522,0.0507862,0,0,0.372579,2.74953,95,223,0,1160,753,75,61,0,75,0.128,0.255,0.62,9.6,19.13,46.275,61,7.5,42.7,18.3,0,0,88.975,0,20,24,83.2029,14.5506
1386,51.593,25.134,1.526,7.045,9.34,0.709,2.368,0.686,0.853,0,0,0,0,0,360,40,0,1197,644,107,53,0,107,0.1536,0.3071,0.54,16.44,32.86,57.7051,53,10,31.8,21.2,0,4,91.9051,0,25,20,98.9948,4.85401
1387,50.7695,24.491,1.464,8.7425,9.235,0.6835,2.267,0.749,0.8495,0,0,0,0,0,340,60,0,1200,646,107,53,0,107,0.1536,0.3071,0.54,16.44,32.86,57.7051,53,10,31.8,21.2,0,4,91.9051,0,25,20,99.9788,9.45255
1388,49.946,23.848,1.402,10.44,9.13,0.658,2.166,0.812,0.846,0,0,0,0,0,320,80,0,1203,646,107,53,0,107,0.1536,0.3071,0.54,16.44,32.86,57.7051,53,10,31.8,21.2,0,4,91.9051,0,25,20,100.9532,12.5182
1389,49.1225,23.205,1.34,12.1375,9.025,0.6325,2.065,0.875,0.8425,0,0,0,0,0,300,100,0,1207,650,107,53,0,107,0.1536,0.3071,0.54,16.44,32.86,57.7051,53,10,31.8,21.2,0,4,91.9051,0,25,20,101.9516,16.3504
1390,48.299,22.562,1.278,13.835,8.92,0.607,1.964,0.938,0.839,0,0,0,0,0,280,120,0,1210,652,107,53,0,107,0.1536,0.3071,0.54,16.44,32.86,57.7051,53,10,31.8,21.2,0,4,91.9051,0,25,20,102.9356,17.1168
1391,50.7695,24.491,1.464,8.7425,9.235,0.6835,2.267,0.749,0.8495,0,0,0,0,0,340,60,0,1200,646,107,53,0,107,0.1536,0.3071,0.54,16.44,32.86,57.7051,53,12,27.56,25.44,0,4,87.6651,0,25,20,108.0984,7.90123
1392,49.946,23.848,1.402,10.44,9.13,0.658,2.166,0.812,0.846,0,0,0,0,0,320,80,0,1203,648,107,53,0,107,0.1536,0.3071,0.54,16.44,32.86,57.7051,53,12,27.56,25.44,0,4,87.6651,0,25,20,109.0824,13.5802
1393,49.1225,23.205,1.34,12.1375,9.025,0.6325,2.065,0.875,0.8425,0,0,0,0,0,300,100,0,1222,658,107,53,0,107,0.1536,0.3071,0.54,16.44,32.86,57.7051,53,12,27.56,25.44,0,4,87.6651,0,25,20,110.1816,21.4815
1394,50.7695,24.491,1.464,8.7425,9.235,0.6835,2.267,0.749,0.8495,0,0,0,0,0,340,60,0,1209,651,93,47,0,93,0.1536,0.3071,0.54,14.28,28.56,50.1549,47,10,28.2,18.8,0,4,80.7549,0,25,20,90.41,5.87575
1395,49.946,23.848,1.402,10.44,9.13,0.658,2.166,0.812,0.846,0,0,0,0,0,320,80,0,1227,661,93,47,0,93,0.1536,0.3071,0.54,14.28,28.56,50.1549,47,10,28.2,18.8,0,4,80.7549,0,25,20,91.5044,9.9934
1396,49.1225,23.205,1.34,12.1375,9.025,0.6325,2.065,0.875,0.8425,0,0,0,0,0,300,100,0,1246,671,93,47,0,93,0.1536,0.3071,0.54,14.28,28.56,50.1549,47,10,28.2,18.8,0,4,80.7549,0,25,20,92.6036,17.2483
1397,50.7695,24.491,1.464,8.7425,9.235,0.6835,2.267,0.749,0.8495,0,0,0,0,0,340,60,0,1184,637,96,64,0,96,0.1536,0.3071,0.54,14.75,29.48,51.7728,64,10,38.4,25.6,0,4,92.5728,0,25,20,104.3248,6.08846
1398,49.1225,23.205,1.34,12.1375,9.025,0.6325,2.065,0.875,0.8425,0,0,0,0,0,300,100,0,1223,659,114,46,0,114,0.1536,0.3071,0.54,17.51,35.01,61.4802,46,10,27.6,18.4,0,4,91.4802,0,25,20,99.2296,19.2987