File: DS_cube_100_2_Strength.csv
Idx_Sample,SiO2,Al2O3,Fe2O3,CaO,MgO,Na2O,K2O,SO3,TiO2,P2O5,LOI,Cement (kg/m3),FA (kg/m3),GGBFS (kg/m3),Other SCM (kg/m3),Coarse aggregate (kg/m3),Fine aggregate (kg/m3),Na2SiO3,NaOH,NaOH specific gravity,Na2SiO3 specific gravity,Na2O (l),Sio2 (l),H2O,Na2O (Dry),Sio2 (Dry),Water,Concentration (M) NaOH,Water,NaOH (Dry),Additional water,Superplasticizer,water -eff,Initial curing time (day),Initial curing temp (C),Final curing temp (C),Mixture CO2 (Na2SiO3 as solution),7-d Cubic compressive strength (MPa)
809,60.2429,27.0048,2.16286,3.43333,1.09667,0.47619,0.952381,0.485714,0,0,2.49524,20,400,0,0,865,865,100,40,0,1.5,0.114,0.301,0.59,11.4,30.1,58.5,16,14.4,25.6,35,10.5,114.2,2,50,24,163.551,29.1667
810,58.3727,26.0091,2.22,6.1,1.18455,0.454545,0.909091,0.563636,0,0,2.49091,40,400,0,0,857,857,100,40,0,1.5,0.114,0.301,0.59,11.4,30.1,58.5,16,14.4,25.6,35,10.5,114.2,2,50,24,180.275,32.7778
811,56.6652,25.1,2.27217,8.53478,1.26478,0.434783,0.869565,0.634783,0,0,2.48696,60,400,0,0,850,850,100,40,0,1.5,0.114,0.301,0.59,11.4,30.1,58.5,16,14.4,25.6,35,10.5,114.2,2,50,24,197.007,41.3889
812,62.3,28.1,2.1,0.5,1,0.5,1,0.4,0,0,2.5,0,350,0,0,920,920,86.4286,34.5714,0,1.5,0.114,0.301,0.59,9.85,26.02,50.5607,16,12.4457,22.1257,35,10.5,104.306,2,50,24,135.54,18.3529
813,62.3,28.1,2.1,0.5,1,0.5,1,0.4,0,0,2.5,0,400,0,0,875,875,100,40,0,1.5,0.114,0.301,0.59,11.4,30.1,58.5,16,14.4,25.6,35,10.5,114.2,2,50,24,146.847,25.4146
814,62.3,28.1,2.1,0.5,1,0.5,1,0.4,0,0,2.5,0,450,0,0,830,830,112.5,45,0,1.5,0.114,0.301,0.59,12.83,33.86,65.8125,16,16.2,28.8,35,10.5,123.3125,2,50,24,157.243,33.0189
815,62.3,28.1,2.1,0.5,1,0.5,1,0.4,0,0,2.5,0,400,0,0,875,875,100,40,0,1.5,0.114,0.301,0.59,11.4,30.1,58.5,16,14.4,25.6,35,10.5,114.2,2,50,24,146.847,32.2222
816,62.3,28.1,2.1,0.5,1,0.5,1,0.4,0,0,2.5,0,450,0,0,830,830,112.5,45,0,1.5,0.114,0.301,0.59,12.83,33.86,65.8125,16,16.2,28.8,35,10.5,123.3125,2,50,24,157.243,39.7222
817,56.6652,25.1,2.27217,8.53478,1.26478,0.434783,0.869565,0.634783,0,0,2.48696,60,400,0,0,875,875,100,40,0,1.5,0.114,0.301,0.59,11.4,30.1,58.5,16,14.4,25.6,35,10.5,114.2,2,50,24,197.247,45
818,62.3,28.1,2.1,0.5,1,0.5,1,0.4,0,0,2.5,0,400,0,0,875,875,100,40,0,1.5,0.114,0.301,0.59,11.4,30.1,58.5,16,14.4,25.6,35,10.5,114.2,2,50,24,146.847,25.2778
819,62.3,28.1,2.1,0.5,1,0.5,1,0.4,0,0,2.5,0,450,0,0,830,830,100,40,0,1.5,0.114,0.301,0.59,11.4,30.1,58.5,16,14.4,25.6,35,10.5,114.2,2,50,24,146.615,33.3333
820,56.6652,25.1,2.27217,8.53478,1.26478,0.434783,0.869565,0.634783,0,0,2.48696,60,400,0,0,875,875,112.5,45,0,1.5,0.114,0.301,0.59,12.83,33.86,65.8125,16,16.2,28.8,35,10.5,123.3125,2,50,24,207.875,41.3889
821,62.3,28.1,2.1,0.5,1,0.5,1,0.4,0,0,2.5,0,400,0,0,875,875,100,40,0,1.5,0.114,0.301,0.59,11.4,30.1,58.5,16,14.4,25.6,35,10.5,114.2,2,28,24,118.614,9.83321
822,62.3,28.1,2.1,0.5,1,0.5,1,0.4,0,0,2.5,0,400,0,0,875,875,100,40,0,1.5,0.114,0.301,0.59,11.4,30.1,58.5,16,14.4,25.6,35,10.5,114.2,2,70,24,172.514,35.7548
823,62.3,28.1,2.1,0.5,1,0.5,1,0.4,0,0,2.5,0,400,0,0,875,875,100,40,0,1.5,0.114,0.301,0.59,11.4,30.1,58.5,16,14.4,25.6,35,10.5,114.2,2,90,24,198.181,30.1276
824,62.3,28.1,2.1,0.5,1,0.5,1,0.4,0,0,2.5,0,400,0,0,875,875,100,40,0,1.5,0.114,0.301,0.59,11.4,30.1,58.5,16,14.4,25.6,35,10.5,114.2,1,50,24,130.806,22.7857
825,62.3,28.1,2.1,0.5,1,0.5,1,0.4,0,0,2.5,0,400,0,0,875,875,100,40,0,1.5,0.114,0.301,0.59,11.4,30.1,58.5,16,14.4,25.6,35,10.5,114.2,3,50,24,162.889,28.7857
826,62.3,28.1,2.1,0.5,1,0.5,1,0.4,0,0,2.5,0,400,0,0,875,875,100,40,0,1.5,0.114,0.301,0.59,11.4,30.1,58.5,16,14.4,25.6,35,10.5,114.2,2,50,24,146.847,25.5208
827,62.3,28.1,2.1,0.5,1,0.5,1,0.4,0,0,2.5,0,400,0,0,880,880,100,40,0,1.5,0.114,0.301,0.59,11.4,30.1,58.5,16,14.4,25.6,30,10.5,109.2,2,50,24,146.895,30.625
828,62.3,28.1,2.1,0.5,1,0.5,1,0.4,0,0,2.5,0,400,0,0,895,895,100,40,0,1.5,0.114,0.301,0.59,11.4,30.1,58.5,16,14.4,25.6,20,10.5,99.2,2,50,24,147.039,31.5365
829,62.3,28.1,2.1,0.5,1,0.5,1,0.4,0,0,2.5,0,400,0,0,910,910,100,40,0,1.5,0.114,0.301,0.59,11.4,30.1,58.5,16,14.4,25.6,10,10.5,89.2,2,50,24,147.183,33.1771
830,62.3,28.1,2.1,0.5,1,0.5,1,0.4,0,0,2.5,0,400,0,0,880,880,100,40,0,1.5,0.114,0.301,0.59,11.4,30.1,58.5,16,14.4,25.6,35,7.5,112.4,2,50,24,141.255,27.377
831,62.3,28.1,2.1,0.5,1,0.5,1,0.4,0,0,2.5,0,400,0,0,885,885,100,40,0,1.5,0.114,0.301,0.59,11.4,30.1,58.5,16,14.4,25.6,35,5,110.9,2,50,24,136.603,29.6721
832,62.3,28.1,2.1,0.5,1,0.5,1,0.4,0,0,2.5,0,400,0,0,887,887,100,40,0,1.5,0.114,0.301,0.59,11.4,30.1,58.5,16,14.4,25.6,35,2.5,109.4,2,50,24,131.923,30.4918
833,62.3,28.1,2.1,0.5,1,0.5,1,0.4,0,0,2.5,0,400,0,0,875,875,100,40,0,1.5,0.114,0.301,0.59,11.4,30.1,58.5,18,11.2,28.8,35,10.5,111,2,50,24,152.975,18.5537
834,62.3,28.1,2.1,0.5,1,0.5,1,0.4,0,0,2.5,0,400,0,0,875,875,100,40,0,1.5,0.114,0.301,0.59,11.4,30.1,58.5,12,20.8,19.2,35,10.5,120.6,2,50,24,134.591,16.0047
835,62.3,28.1,2.1,0.5,1,0.5,1,0.4,0,0,2.5,0,400,0,0,840,840,128.5,51.5,0,1.5,0.114,0.301,0.59,14.65,38.68,75.1725,16,18.54,32.96,35,10.5,135.0125,2,50,24,170.866,27.9032
836,62.3,28.1,2.1,0.5,1,0.5,1,0.4,0,0,2.5,0,400,0,0,860,860,114,46,0,1.5,0.114,0.301,0.59,13,34.31,66.69,16,16.56,29.44,35,10.5,124.55,2,50,24,159.097,29.5161
837,62.3,28.1,2.1,0.5,1,0.5,1,0.4,0,0,2.5,0,400,0,0,895,895,85.5,34.5,0,1.5,0.114,0.301,0.59,9.75,25.74,50.0175,16,12.42,22.08,35,10.5,103.7375,2,50,24,135.079,16.129
838,62.3,28.1,2.1,0.5,1,0.5,1,0.4,0,0,2.5,0,400,0,0,875,875,107.5,32.5,0,1.5,0.114,0.301,0.59,12.26,32.36,62.8875,16,11.7,20.8,35,10.5,115.8875,2,50,24,140.355,31.9719
839,62.3,28.1,2.1,0.5,1,0.5,1,0.4,0,0,2.5,0,400,0,0,875,875,93,47,0,1.5,0.114,0.301,0.59,10.6,27.99,54.405,16,16.92,30.08,35,47,134.525,2,50,24,221.527,23.0777
864,40.17,13.86,15.16,9.7,9.57,3.66,1.53,0.09,0,0,4.75,0,0,0,410,740,1110,103,41,2.13,1.53,0.11,0.29,0.6,11.33,29.87,61.8,14,18.04,22.96,101,12.3,188.22,1,40,24,122.6774,19.7
865,40.17,13.86,15.16,9.7,9.57,3.66,1.53,0.09,0,0,4.75,0,0,0,410,740,1110,103,41,2.13,1.53,0.11,0.29,0.6,11.33,29.87,61.8,14,18.04,22.96,101,12.3,188.22,1,80,24,148.344,24.6
866,40.17,13.86,15.16,9.7,9.57,3.66,1.53,0.09,0,0,4.75,0,0,0,410,740,1110,103,41,2.13,1.53,0.11,0.29,0.6,11.33,29.87,61.8,14,18.04,22.96,101,12.3,188.22,2,40,24,132.3024,22.9
867,40.17,13.86,15.16,9.7,9.57,3.66,1.53,0.09,0,0,4.75,0,0,0,410,740,1110,103,41,2.13,1.53,0.11,0.29,0.6,11.33,29.87,61.8,14,18.04,22.96,101,12.3,188.22,2,80,24,183.636,25
868,40.17,13.86,15.16,9.7,9.57,3.66,1.53,0.09,0,0,4.75,0,0,0,410,740,1110,132,53,2.13,1.53,0.11,0.29,0.6,14.52,38.28,79.2,14,23.32,29.68,83,12.3,192.9,1,40,24,145.9862,25.3
869,40.17,13.86,15.16,9.7,9.57,3.66,1.53,0.09,0,0,4.75,0,0,0,410,740,1110,132,53,2.13,1.53,0.11,0.29,0.6,14.52,38.28,79.2,14,23.32,29.68,83,12.3,192.9,1,80,24,171.653,27.8
870,40.17,13.86,15.16,9.7,9.57,3.66,1.53,0.09,0,0,4.75,0,0,0,410,740,1110,132,53,2.13,1.53,0.11,0.29,0.6,14.52,38.28,79.2,14,23.32,29.68,83,12.3,192.9,2,40,24,155.6112,27.1
871,40.17,13.86,15.16,9.7,9.57,3.66,1.53,0.09,0,0,4.75,0,0,0,410,740,1110,132,53,2.13,1.53,0.11,0.29,0.6,14.52,38.28,79.2,14,23.32,29.68,83,12.3,192.9,2,80,24,206.945,29
979,29.945,10.0725,3.005,46.1775,2.035,0.2375,0.8025,2.2325,0.46,0.135,0,225,75,0,0,1193.02,795.35,29.46,11.786,0,0,0.1627,0.3464,0.49,4.79,10.2,14.4619,10,7.0716,4.7144,125.19,0,146.724,1,100,40,266.603,25.6934
980,40.58,15.835,3.73,31.275,1.69,0.185,0.745,1.505,0.92,0.27,0,150,150,0,0,1171.48,780.99,58.93,23.57,0,0,0.1627,0.3464,0.49,9.59,20.41,28.9287,10,14.142,9.428,100.38,0,143.451,1,100,40,223.366,31.0871
981,51.215,21.5975,4.455,16.3725,1.345,0.1325,0.6875,0.7775,1.38,0.405,0,75,225,0,0,1149.96,766.64,88.39,35.36,0,0,0.1627,0.3464,0.49,14.38,30.62,43.3907,10,21.216,14.144,75.57,0,140.177,1,100,40,180.131,30.3025
982,57.9,31.11,5.07,1.29,0.97,0.09,1,0.05,0,0,0,0,300,0,0,1128.44,752.29,117.86,47.14,0,0,0.1627,0.3464,0.49,19.18,40.83,57.8575,10,28.284,18.856,50.76,0,136.901,1,100,40,136.891,28.4393
983,29.945,10.0725,3.005,46.1775,2.035,0.2375,0.8025,2.2325,0.46,0.135,0,225,75,0,0,1193.58,795.73,24.1,9.64,0,0,0.1627,0.3464,0.49,3.92,8.35,11.83069,10,5.784,3.856,129.7,0,147.315,1,100,40,263.034,22.065
984,40.58,15.835,3.73,31.275,1.69,0.185,0.745,1.505,0.92,0.27,0,150,150,0,0,1172.64,781.76,48.21,19.29,0,0,0.1627,0.3464,0.49,7.84,16.7,23.6663,10,11.574,7.716,109.4,0,144.64,1,100,40,216.238,26.0857
985,51.215,21.5975,4.455,16.3725,1.345,0.1325,0.6875,0.7775,1.38,0.405,0,75,225,0,0,1151.7,767.79,72.32,28.93,0,0,0.1627,0.3464,0.49,11.77,25.05,35.5019,10,17.358,11.572,89.11,0,141.97,1,100,40,169.434,25.3992
986,57.9,31.11,5.07,1.29,0.97,0.09,1,0.05,0,0,0,0,300,0,0,1130.74,753.83,96.43,38.57,0,0,0.1627,0.3464,0.49,15.69,33.4,47.3375,10,23.142,15.428,68.81,0,139.289,1,100,40,122.63,23.9282
987,29.945,10.0725,3.005,46.1775,2.035,0.2375,0.8025,2.2325,0.46,0.135,0,262.5,87.5,0,0,1123.66,749.11,34.38,13.75,0,0,0.1627,0.3464,0.49,5.59,11.91,16.8771,10,8.25,5.5,146.06,0,171.187,1,100,40,300.874,30.4006
988,40.58,15.835,3.73,31.275,1.69,0.185,0.745,1.505,0.92,0.27,0,175,175,0,0,1098.54,732.36,68.75,27.5,0,0,0.1627,0.3464,0.49,11.19,23.82,33.7494,10,16.5,11,117.11,0,167.359,1,100,40,250.428,32.8523
989,51.215,21.5975,4.455,16.3725,1.345,0.1325,0.6875,0.7775,1.38,0.405,0,87.5,262.5,0,0,1073.42,715.62,103.13,41.25,0,0,0.1627,0.3464,0.49,16.78,35.72,50.6265,10,24.75,16.5,88.17,0,163.547,1,100,40,199.987,32.8523
990,57.9,31.11,5.07,1.29,0.97,0.09,1,0.05,0,0,0,0,350,0,0,1048.3,698.87,137.5,55,0,0,0.1627,0.3464,0.49,22.37,47.63,67.49875,10,33,22,59.23,0,159.729,1,100,40,149.541,32.3619
991,29.945,10.0725,3.005,46.1775,2.035,0.2375,0.8025,2.2325,0.46,0.135,0,262.5,87.5,0,0,1124.337,749.56,28.13,11.25,0,0,0.1627,0.3464,0.49,4.58,9.74,13.809,10,6.75,4.5,151.32,0,171.879,1,100,40,296.714,25.6934
992,40.58,15.835,3.73,31.275,1.69,0.185,0.745,1.505,0.92,0.27,0,175,175,0,0,1099.9,733.26,56.25,22.5,0,0,0.1627,0.3464,0.49,9.15,19.49,27.6131,10,13.5,9,127.64,0,168.753,1,100,40,242.109,28.5374
993,51.215,21.5975,4.455,16.3725,1.345,0.1325,0.6875,0.7775,1.38,0.405,0,87.5,262.5,0,0,1075.44,716.97,84.38,33.75,0,0,0.1627,0.3464,0.49,13.73,29.23,41.4221,10,20.25,13.5,103.96,0,165.632,1,100,40,187.508,27.5567
994,57.9,31.11,5.07,1.29,0.97,0.09,1,0.05,0,0,0,0,350,0,0,1051,700.67,112.5,45,0,0,0.1627,0.3464,0.49,18.3,38.97,55.22625,10,27,18,80.28,0,162.506,1,100,40,132.903,27.1644
1337,65.6,26.53,5.49,0.31,0.76,0.36,0.23,0.31,0,0,0.41,0,430,0,0,1243,533,138,56,0,0,0.1695,0.3506,0.4799,23.39,48.38,66.2262,8,38.08,17.92,0,8.6,109.4662,1,60,27,132.868,27.1075
1338,65.6,26.53,5.49,0.31,0.76,0.36,0.23,0.31,0,0,0.41,0,397,0,0,1277,547,128,51,0,0,0.1695,0.3506,0.4799,21.7,44.88,61.4272,8,34.68,16.32,0,7.94,100.8712,1,60,27,125.062,28.529
1339,65.6,26.53,5.49,0.31,0.76,0.36,0.23,0.31,0,0,0.41,0,364,0,0,1311,562,117,46,0,0,0.1695,0.3506,0.4799,19.83,41.02,56.1483,8,31.28,14.72,0,7.28,91.7963,1,60,27,116.9,29.5457
1340,65.6,26.53,5.49,0.31,0.76,0.36,0.23,0.31,0,0,0.41,0,331,0,0,1344,576,106,42,0,0,0.1695,0.3506,0.4799,17.97,37.16,50.8694,8,28.56,13.44,0,6.62,83.4014,1,60,27,109.342,26.5138
1341,65.6,26.53,5.49,0.31,0.76,0.36,0.23,0.31,0,0,0.41,0,298,0,0,1377,590,96,38,0,0,0.1695,0.3506,0.4799,16.27,33.66,46.0704,8,25.84,12.16,0,5.96,75.4864,1,60,27,102.143,24.4939
1342,65.6,26.53,5.49,0.31,0.76,0.36,0.23,0.31,0,0,0.41,0,430,0,0,1243,533,138,55,0,0,0.1695,0.3506,0.4799,23.39,48.38,66.2262,10,33,22,0,8.6,104.3862,1,60,27,140.681,30.9104
1343,65.6,26.53,5.49,0.31,0.76,0.36,0.23,0.31,0,0,0.41,0,397,0,0,1277,547,128,51,0,0,0.1695,0.3506,0.4799,21.7,44.88,61.4272,10,30.6,20.4,0,7.94,96.7912,1,60,27,132.875,32.0528
1344,65.6,26.53,5.49,0.31,0.76,0.36,0.23,0.31,0,0,0.41,0,364,0,0,1311,562,117,47,0,0,0.1695,0.3506,0.4799,19.83,41.02,56.1483,10,28.2,18.8,0,7.28,88.7163,1,60,27,124.713,32.5172
1345,65.6,26.53,5.49,0.31,0.76,0.36,0.23,0.31,0,0,0.41,0,331,0,0,1344,576,106,42,0,0,0.1695,0.3506,0.4799,17.97,37.16,50.8694,10,25.2,16.8,0,6.62,80.0414,1,60,27,115.776,29.9312
1346,65.6,26.53,5.49,0.31,0.76,0.36,0.23,0.31,0,0,0.41,0,298,0,0,1377,590,96,38,0,0,0.1695,0.3506,0.4799,16.27,33.66,46.0704,10,22.8,15.2,0,5.96,72.4464,1,60,27,107.965,26.5536
1347,65.6,26.53,5.49,0.31,0.76,0.36,0.23,0.31,0,0,0.41,0,430,0,0,1243,533,138,55,0,0,0.1695,0.3506,0.4799,23.39,48.38,66.2262,12,28.6,26.4,0,8.6,99.9862,1,60,27,149.107,31.035
1348,65.6,26.53,5.49,0.31,0.76,0.36,0.23,0.31,0,0,0.41,0,397,0,0,1277,547,128,50,0,0,0.1695,0.3506,0.4799,21.7,44.88,61.4272,12,26,24,0,7.94,92.1912,1,60,27,139.769,33.1071
1349,65.6,26.53,5.49,0.31,0.76,0.36,0.23,0.31,0,0,0.41,0,364,0,0,1311,562,117,47,0,0,0.1695,0.3506,0.4799,19.83,41.02,56.1483,12,24.44,22.56,0,7.28,84.9563,1,60,27,131.914,33.7096
1350,65.6,26.53,5.49,0.31,0.76,0.36,0.23,0.31,0,0,0.41,0,331,0,0,1344,576,106,42,0,0,0.1695,0.3506,0.4799,17.97,37.16,50.8694,12,21.84,20.16,0,6.62,76.6814,1,60,27,122.21,32.1652
1351,65.6,26.53,5.49,0.31,0.76,0.36,0.23,0.31,0,0,0.41,0,298,0,0,1377,590,96,158,0,0,0.1695,0.3506,0.4799,16.27,33.66,46.0704,12,82.16,75.84,0,5.96,131.8064,1,60,27,224.09,29.1515
1352,65.6,26.53,5.49,0.31,0.76,0.36,0.23,0.31,0,0,0.41,0,430,0,0,1243,533,138,55,0,0,0.1695,0.3506,0.4799,23.39,48.38,66.2262,14,24.2,30.8,0,8.6,95.5862,1,60,27,157.533,32.5843
1353,65.6,26.53,5.49,0.31,0.76,0.36,0.23,0.31,0,0,0.41,0,397,0,0,1277,547,128,51,0,0,0.1695,0.3506,0.4799,21.7,44.88,61.4272,14,22.44,28.56,0,7.94,88.6312,1,60,27,148.501,34.0449
1354,65.6,26.53,5.49,0.31,0.76,0.36,0.23,0.31,0,0,0.41,0,364,0,0,1311,562,117,47,0,0,0.1695,0.3506,0.4799,19.83,41.02,56.1483,14,20.68,26.32,0,7.28,81.1963,1,60,27,139.114,35.0562
1355,65.6,26.53,5.49,0.31,0.76,0.36,0.23,0.31,0,0,0.41,0,331,0,0,1344,576,106,42,0,0,0.1695,0.3506,0.4799,17.97,37.16,50.8694,14,18.48,23.52,0,6.62,73.3214,1,60,27,128.645,33.0337
1356,65.6,26.53,5.49,0.31,0.76,0.36,0.23,0.31,0,0,0.41,0,298,0,0,1377,590,96,38,0,0,0.1695,0.3506,0.4799,16.27,33.66,46.0704,14,16.72,21.28,0,5.96,66.3664,1,60,27,119.608,30.5618
1357,65.6,26.53,5.49,0.31,0.76,0.36,0.23,0.31,0,0,0.41,0,397,0,0,1277,547,128,51,0,0,0.1695,0.3506,0.4799,21.7,44.88,61.4272,8,34.68,16.32,0,7.94,100.8712,1,60,27,125.062,23.5624
1358,65.6,26.53,5.49,0.31,0.76,0.36,0.23,0.31,0,0,0.41,0,397,0,0,1277,547,128,51,0,0,0.1695,0.3506,0.4799,21.7,44.88,61.4272,8,34.68,16.32,0,7.94,100.8712,1,70,27,131.4782,25.622
1359,65.6,26.53,5.49,0.31,0.76,0.36,0.23,0.31,0,0,0.41,0,397,0,0,1277,547,128,51,0,0,0.1695,0.3506,0.4799,21.7,44.88,61.4272,8,34.68,16.32,0,7.94,100.8712,1,80,27,137.895,31.683
1360,65.6,26.53,5.49,0.31,0.76,0.36,0.23,0.31,0,0,0.41,0,397,0,0,1277,547,128,51,0,0,0.1695,0.3506,0.4799,21.7,44.88,61.4272,8,34.68,16.32,0,7.94,100.8712,1,90,27,144.312,32.8504
1361,65.6,26.53,5.49,0.31,0.76,0.36,0.23,0.31,0,0,0.41,0,397,0,0,1277,547,128,51,0,0,0.1695,0.3506,0.4799,21.7,44.88,61.4272,8,34.68,16.32,0,7.94,100.8712,1,100,27,150.7282,36.2887
1362,65.6,26.53,5.49,0.31,0.76,0.36,0.23,0.31,0,0,0.41,0,397,0,0,1277,547,128,51,0,0,0.1695,0.3506,0.4799,21.7,44.88,61.4272,10,30.6,20.4,0,7.94,96.7912,1,60,27,132.875,27.0467
1363,65.6,26.53,5.49,0.31,0.76,0.36,0.23,0.31,0,0,0.41,0,397,0,0,1277,547,128,51,0,0,0.1695,0.3506,0.4799,21.7,44.88,61.4272,10,30.6,20.4,0,7.94,96.7912,1,70,27,139.2914,28.0126
1364,65.6,26.53,5.49,0.31,0.76,0.36,0.23,0.31,0,0,0.41,0,397,0,0,1277,547,128,51,0,0,0.1695,0.3506,0.4799,21.7,44.88,61.4272,10,30.6,20.4,0,7.94,96.7912,1,80,27,145.708,33.5223
1365,65.6,26.53,5.49,0.31,0.76,0.36,0.23,0.31,0,0,0.41,0,397,0,0,1277,547,128,51,0,0,0.1695,0.3506,0.4799,21.7,44.88,61.4272,10,30.6,20.4,0,7.94,96.7912,1,90,27,152.125,35.5522
1366,65.6,26.53,5.49,0.31,0.76,0.36,0.23,0.31,0,0,0.41,0,397,0,0,1277,547,128,51,0,0,0.1695,0.3506,0.4799,21.7,44.88,61.4272,10,30.6,20.4,0,7.94,96.7912,1,100,27,158.5414,38.4736
1367,65.6,26.53,5.49,0.31,0.76,0.36,0.23,0.31,0,0,0.41,0,397,0,0,1277,547,128,51,0,0,0.1695,0.3506,0.4799,21.7,44.88,61.4272,12,26.52,24.48,0,7.94,92.7112,1,60,27,140.688,27.7987
1368,65.6,26.53,5.49,0.31,0.76,0.36,0.23,0.31,0,0,0.41,0,397,0,0,1277,547,128,51,0,0,0.1695,0.3506,0.4799,21.7,44.88,61.4272,12,26.52,24.48,0,7.94,92.7112,1,70,27,147.1046,29.434
1369,65.6,26.53,5.49,0.31,0.76,0.36,0.23,0.31,0,0,0.41,0,397,0,0,1277,547,128,51,0,0,0.1695,0.3506,0.4799,21.7,44.88,61.4272,12,26.52,24.48,0,7.94,92.7112,1,80,27,153.521,35.8491
1370,65.6,26.53,5.49,0.31,0.76,0.36,0.23,0.31,0,0,0.41,0,397,0,0,1277,547,128,51,0,0,0.1695,0.3506,0.4799,21.7,44.88,61.4272,12,26.52,24.48,0,7.94,92.7112,1,90,27,159.938,38.9937
1371,65.6,26.53,5.49,0.31,0.76,0.36,0.23,0.31,0,0,0.41,0,397,0,0,1277,547,128,51,0,0,0.1695,0.3506,0.4799,21.7,44.88,61.4272,12,26.52,24.48,0,7.94,92.7112,1,100,27,166.3546,42.5157
1372,65.6,26.53,5.49,0.31,0.76,0.36,0.23,0.31,0,0,0.41,0,397,0,0,1277,547,128,51,0,0,0.1695,0.3506,0.4799,21.7,44.88,61.4272,14,22.44,28.56,0,7.94,88.6312,1,60,27,148.501,27.0631
1373,65.6,26.53,5.49,0.31,0.76,0.36,0.23,0.31,0,0,0.41,0,397,0,0,1277,547,128,51,0,0,0.1695,0.3506,0.4799,21.7,44.88,61.4272,14,22.44,28.56,0,7.94,88.6312,1,70,27,154.9178,29.1242
1374,65.6,26.53,5.49,0.31,0.76,0.36,0.23,0.31,0,0,0.41,0,397,0,0,1277,547,128,51,0,0,0.1695,0.3506,0.4799,21.7,44.88,61.4272,14,22.44,28.56,0,7.94,88.6312,1,80,27,161.334,35.1813
1375,65.6,26.53,5.49,0.31,0.76,0.36,0.23,0.31,0,0,0.41,0,397,0,0,1277,547,128,51,0,0,0.1695,0.3506,0.4799,21.7,44.88,61.4272,14,22.44,28.56,0,7.94,88.6312,1,90,27,167.751,38.854
1376,65.6,26.53,5.49,0.31,0.76,0.36,0.23,0.31,0,0,0.41,0,397,0,0,1277,547,128,51,0,0,0.1695,0.3506,0.4799,21.7,44.88,61.4272,14,22.44,28.56,0,7.94,88.6312,1,100,27,174.1678,41.3677
1722,50.76,27.32,4.64,5.4,3.72,0.8,4.85,2,1.16,0,0,0,280,0,0,1309,561,126,84,0,0,0.0883,0.2764,0.64,11.13,34.83,80.0478,12,43.68,40.32,0,0,123.7278,1,80,24,167.96,45.2
1723,50.76,27.32,4.64,5.4,3.72,0.8,4.85,2,1.16,0,0,0,280,0,0,1309,561,126,84,0,0,0.0883,0.2764,0.64,11.13,34.83,80.0478,12,43.68,40.32,0,0,123.7278,1,80,24,167.96,44.1
1727,49.2274,26.1356,4.543646,8.32401,3.697104,0.77615,4.641551,2.1431,1.144736,0,0,14,280,0,0,1309,561,126,84,0,0,0.0883,0.2764,0.64,11.13,34.83,80.0478,12,43.68,40.32,0,0,123.7278,1,80,24,179.72,47.5
1728,49.2274,26.1356,4.543646,8.32401,3.697104,0.77615,4.641551,2.1431,1.144736,0,0,14,280,0,0,1309,561,126,84,0,0,0.0883,0.2764,0.64,11.13,34.83,80.0478,12,43.68,40.32,0,0,123.7278,1,80,24,179.72,48.6
1730,36.74,10.78,0.42,43.34,3.21,0.18,0.17,0.53,0,0,0.6,0,0,400,0,894,894,101.82,58.18,0,1.5,0.13,0.32,0.55,13.24,32.58,56.001,10,34.908,23.272,30,12,128.109,1,30,24,136.372,41.13
1731,36.74,10.78,0.42,43.34,3.21,0.18,0.17,0.53,0,0,0.6,0,0,400,0,876,876,137.65,42.35,0,1.5,0.13,0.32,0.55,17.89,44.05,75.7075,10,25.41,16.94,30,12,138.3175,1,60,24,156.222,41.91
1732,36.74,10.78,0.42,43.34,3.21,0.18,0.17,0.53,0,0,0.6,0,0,400,0,858,858,142.86,57.14,0,1.5,0.13,0.32,0.55,18.57,45.72,78.573,10,34.284,22.856,30,12,150.057,1,90,24,188.504,40.59
1733,36.74,10.78,0.42,43.34,3.21,0.18,0.17,0.53,0,0,0.6,0,0,400,0,894,894,114.29,45.71,0,1.5,0.13,0.32,0.55,14.86,36.57,62.8595,10,27.426,18.284,30,12,127.4855,2,90,24,211.517,66.18
1734,36.74,10.78,0.42,43.34,3.21,0.18,0.17,0.53,0,0,0.6,0,0,400,0,876,876,114.55,65.45,0,1.5,0.13,0.32,0.55,14.89,36.66,63.0025,10,39.27,26.18,30,12,139.4725,2,30,24,149.559,62
1735,36.74,10.78,0.42,43.34,3.21,0.18,0.17,0.53,0,0,0.6,0,0,400,0,858,858,152.94,47.06,0,1.5,0.13,0.32,0.55,19.88,48.94,84.117,10,28.236,18.824,30,12,149.553,2,60,24,187.62,58.4
1736,36.74,10.78,0.42,43.34,3.21,0.18,0.17,0.53,0,0,0.6,0,0,400,0,894,894,114.29,45.71,0,1.5,0.13,0.32,0.55,14.86,36.57,62.8595,10,27.426,18.284,30,12,127.4855,3,60,24,195.476,47.16
1737,36.74,10.78,0.42,43.34,3.21,0.18,0.17,0.53,0,0,0.6,0,0,400,0,876,876,132,48,0,1.5,0.13,0.32,0.55,17.16,42.24,72.6,10,28.8,19.2,30,12,138.6,3,90,24,261.1826,49.35
1738,36.74,10.78,0.42,43.34,3.21,0.18,0.17,0.53,0,0,0.6,0,0,400,0,858,858,127.27,72.73,0,1.5,0.13,0.32,0.55,16.55,40.73,69.9985,10,43.638,29.092,30,12,150.8365,3,30,24,162.75,55.51
1739,36.74,10.78,0.42,43.34,3.21,0.18,0.17,0.53,0,0,0.6,0,0,400,0,894,894,122.35,37.65,0,1.5,0.13,0.32,0.55,15.91,39.15,67.2925,12,19.578,18.072,30,12,124.0705,1,90,24,172.305,53.56
1740,36.74,10.78,0.42,43.34,3.21,0.18,0.17,0.53,0,0,0.6,0,0,400,0,876,876,128.57,51.43,0,1.5,0.13,0.32,0.55,16.71,41.14,70.7135,12,26.7436,24.6864,30,12,134.6571,1,30,24,148.538,53.26
1741,36.74,10.78,0.42,43.34,3.21,0.18,0.17,0.53,0,0,0.6,0,0,400,0,858,858,127.27,72.73,0,1.5,0.13,0.32,0.55,16.55,40.73,69.9985,12,37.8196,34.9104,30,12,145.0181,1,60,24,186.726,55.57
1742,36.74,10.78,0.42,43.34,3.21,0.18,0.17,0.53,0,0,0.6,0,0,400,0,894,894,101.82,58.18,0,1.5,0.13,0.32,0.55,13.24,32.58,56.001,12,30.2536,27.9264,30,12,123.4546,2,60,24,186.993,75.53
1743,36.74,10.78,0.42,43.34,3.21,0.18,0.17,0.53,0,0,0.6,0,0,400,0,876,876,137.65,42.35,0,1.5,0.13,0.32,0.55,17.89,44.05,75.7075,12,22.022,20.328,30,12,134.9295,2,90,24,223.668,61.29
1744,36.74,10.78,0.42,43.34,3.21,0.18,0.17,0.53,0,0,0.6,0,0,400,0,858,858,142.86,57.14,0,1.5,0.13,0.32,0.55,18.57,45.72,78.573,12,29.7128,27.4272,30,12,145.4858,2,30,24,161.966,45.31
1745,36.74,10.78,0.42,43.34,3.21,0.18,0.17,0.53,0,0,0.6,0,0,400,0,894,894,114.29,45.71,0,1.5,0.13,0.32,0.55,14.86,36.57,62.8595,12,23.7692,21.9408,30,12,123.8287,3,30,24,144.728,68.93
1746,36.74,10.78,0.42,43.34,3.21,0.18,0.17,0.53,0,0,0.6,0,0,400,0,876,876,114.55,65.45,0,1.5,0.13,0.32,0.55,14.89,36.66,63.0025,12,34.034,31.416,30,12,134.2365,3,60,24,220.544,34.36
1747,36.74,10.78,0.42,43.34,3.21,0.18,0.17,0.53,0,0,0.6,0,0,400,0,858,858,152.94,47.06,0,1.5,0.13,0.32,0.55,19.88,48.94,84.117,12,24.4712,22.5888,30,12,145.7882,3,90,24,275.038,45.28
1748,36.74,10.78,0.42,43.34,3.21,0.18,0.17,0.53,0,0,0.6,0,0,400,0,894,894,114.29,45.71,0,1.5,0.13,0.32,0.55,14.86,36.57,62.8595,14,20.1124,25.5976,30,12,120.1719,1,60,24,164.565,62.95
1749,36.74,10.78,0.42,43.34,3.21,0.18,0.17,0.53,0,0,0.6,0,0,400,0,876,876,114.55,65.45,0,1.5,0.13,0.32,0.55,14.89,36.66,63.0025,14,28.798,36.652,30,12,129.0005,1,90,24,204.905,43.41
1750,36.74,10.78,0.42,43.34,3.21,0.18,0.17,0.53,0,0,0.6,0,0,400,0,858,858,152.94,47.06,0,1.5,0.13,0.32,0.55,19.88,48.94,84.117,14,20.7064,26.3536,30,12,142.0234,1,30,24,160.331,64.89
1751,36.74,10.78,0.42,43.34,3.21,0.18,0.17,0.53,0,0,0.6,0,0,400,0,894,894,122.35,37.65,0,1.5,0.13,0.32,0.55,15.91,39.15,67.2925,14,16.566,21.084,30,12,121.0585,2,30,24,142.781,61.08
1752,36.74,10.78,0.42,43.34,3.21,0.18,0.17,0.53,0,0,0.6,0,0,400,0,876,876,128.57,51.43,0,1.5,0.13,0.32,0.55,16.71,41.14,70.7135,14,22.6292,28.8008,30,12,130.5427,2,60,24,198.125,68.19
1753,36.74,10.78,0.42,43.34,3.21,0.18,0.17,0.53,0,0,0.6,0,0,400,0,858,858,127.27,72.73,0,1.5,0.13,0.32,0.55,16.55,40.73,69.9985,14,32.0012,40.7288,30,12,139.1997,2,90,24,258.826,42.28
1754,36.74,10.78,0.42,43.34,3.21,0.18,0.17,0.53,0,0,0.6,0,0,400,0,894,894,101.82,58.18,0,1.5,0.13,0.32,0.55,13.24,32.58,56.001,14,25.5992,32.5808,30,12,118.8002,3,90,24,276.115,52.52
1755,36.74,10.78,0.42,43.34,3.21,0.18,0.17,0.53,0,0,0.6,0,0,400,0,876,876,137.65,42.35,0,1.5,0.13,0.32,0.55,17.89,44.05,75.7075,14,18.634,23.716,30,12,131.5415,3,30,24,156.365,61.86
1756,36.74,10.78,0.42,43.34,3.21,0.18,0.17,0.53,0,0,0.6,0,0,400,0,858,858,142.86,57.14,0,1.5,0.13,0.32,0.55,18.57,45.72,78.573,14,25.1416,31.9984,30,12,140.9146,3,60,24,231.678,37.83